SITEID,SUBJID,ACTARM,ACTARMCD,RFICDTC,RFSTDTC,RFXSTDTC,STUDYID,USUBJID,SEX,AGE,AGEU,COUNTRY,DOMAIN,ARM,ARMCD,RACE,ETHNIC,RFENDTC
101,1010001,"Treatment cohort 1, 5 mg examplinib",C1,2000-12-21T10:18,2000-12-31T10:18,2000-12-31T10:18,2023000001,20230000011010001,M,43,YEARS,DEU,DM,"Treatment cohort 1, 5 mg examplinib",C1,WHITE,,2000-12-31T10:18
101,1010002,"Treatment cohort 1, 5 mg examplinib",C1,2000-12-21T10:30,2000-12-29T10:30,2000-12-29T10:30,2023000001,20230000011010002,M,49,YEARS,DEU,DM,"Treatment cohort 1, 5 mg examplinib",C1,WHITE,,2000-12-29T10:30
101,1010003,"Treatment cohort 1, 5 mg examplinib",C1,2000-12-21T09:22,2000-12-29T09:22,2000-12-29T09:22,2023000001,20230000011010003,M,46,YEARS,DEU,DM,"Treatment cohort 1, 5 mg examplinib",C1,BLACK OR AFRICAN AMERICAN,,2000-12-29T09:22
101,1010004,Screen Failure,SCRNFAIL,2000-12-21T09:13,NA,NA,2023000001,20230000011010004,M,49,YEARS,DEU,DM,Screen Failure,SCRNFAIL,WHITE,,NA
101,1010005,"Treatment cohort 2, 10 mg examplinib",C2,2000-12-23T09:22,2001-01-02T09:22,2001-01-02T09:22,2023000001,20230000011010005,M,23,YEARS,DEU,DM,"Treatment cohort 2, 10 mg examplinib",C2,WHITE,,2001-01-02T09:22
101,1010006,"Treatment cohort 2, 10 mg examplinib",C2,2000-12-24T12:24,2001-01-03T12:24,2001-01-03T12:24,2023000001,20230000011010006,M,47,YEARS,DEU,DM,"Treatment cohort 2, 10 mg examplinib",C2,BLACK OR AFRICAN AMERICAN,,2001-01-03T12:24
101,1010007,"Treatment cohort 2, 10 mg examplinib",C2,2000-12-24T10:00,2001-01-02T10:00,2001-01-02T10:00,2023000001,20230000011010007,M,31,YEARS,DEU,DM,"Treatment cohort 2, 10 mg examplinib",C2,WHITE,,2001-01-02T10:00
101,1010008,"Treatment cohort 3, 20 mg examplinib",C3,2000-12-25T10:34,2001-01-01T10:34,2001-01-01T10:34,2023000001,20230000011010008,M,53,YEARS,DEU,DM,"Treatment cohort 3, 20 mg examplinib",C3,WHITE,,2001-01-01T10:34
101,1010009,Screen Failure,SCRNFAIL,2000-12-25T11:01,NA,NA,2023000001,20230000011010009,M,52,YEARS,DEU,DM,Screen Failure,SCRNFAIL,WHITE,,NA
101,1010010,"Treatment cohort 3, 20 mg examplinib",C3,2000-12-28T09:29,2001-01-03T09:29,2001-01-03T09:29,2023000001,20230000011010010,M,40,YEARS,DEU,DM,"Treatment cohort 3, 20 mg examplinib",C3,BLACK OR AFRICAN AMERICAN,,2001-01-03T09:29
101,1010011,Screen Failure,SCRNFAIL,2000-12-29T10:46,NA,NA,2023000001,20230000011010011,M,22,YEARS,DEU,DM,Screen Failure,SCRNFAIL,WHITE,,NA
101,1010012,"Treatment cohort 3, 20 mg examplinib",C3,2000-12-31T11:26,2001-01-07T11:26,2001-01-07T11:26,2023000001,20230000011010012,M,47,YEARS,DEU,DM,"Treatment cohort 3, 20 mg examplinib",C3,WHITE,,2001-01-07T11:26
101,1010013,"Treatment cohort 4, 50 mg examplinib",C4,2001-01-01T09:30,2001-01-13T09:30,2001-01-13T09:30,2023000001,20230000011010013,M,40,YEARS,DEU,DM,"Treatment cohort 4, 50 mg examplinib",C4,WHITE,,2001-01-13T09:30
101,1010014,Screen Failure,SCRNFAIL,2001-01-04T08:44,NA,NA,2023000001,20230000011010014,M,21,YEARS,DEU,DM,Screen Failure,SCRNFAIL,WHITE,,NA
101,1010015,Screen Failure,SCRNFAIL,2001-01-04T10:09,NA,NA,2023000001,20230000011010015,M,42,YEARS,DEU,DM,Screen Failure,SCRNFAIL,ASIAN,,NA
101,1010016,Screen Failure,SCRNFAIL,2001-01-04T09:50,NA,NA,2023000001,20230000011010016,M,30,YEARS,DEU,DM,Screen Failure,SCRNFAIL,WHITE,,NA
101,1010017,Screen Failure,SCRNFAIL,2001-01-07T11:21,NA,NA,2023000001,20230000011010017,M,49,YEARS,DEU,DM,Screen Failure,SCRNFAIL,WHITE,,NA
101,1010018,"Treatment cohort 4, 50 mg examplinib",C4,2001-01-09T12:32,2001-01-18T12:32,2001-01-18T12:32,2023000001,20230000011010018,M,27,YEARS,DEU,DM,"Treatment cohort 4, 50 mg examplinib",C4,ASIAN,,2001-01-18T12:32
101,1010019,"Treatment cohort 4, 50 mg examplinib",C4,2001-01-09T09:31,2001-01-19T09:31,2001-01-19T09:31,2023000001,20230000011010019,M,31,YEARS,DEU,DM,"Treatment cohort 4, 50 mg examplinib",C4,WHITE,,2001-01-19T09:31
101,1010020,"Treatment cohort 5, 100 mg examplinib",C5,2001-01-09T11:19,2001-01-19T11:19,2001-01-19T11:19,2023000001,20230000011010020,M,52,YEARS,DEU,DM,"Treatment cohort 5, 100 mg examplinib",C5,WHITE,,2001-01-19T11:19
101,1010021,"Treatment cohort 5, 100 mg examplinib",C5,2001-01-09T09:57,2001-01-19T09:57,2001-01-19T09:57,2023000001,20230000011010021,M,39,YEARS,DEU,DM,"Treatment cohort 5, 100 mg examplinib",C5,WHITE,,2001-01-19T09:57
101,1010022,"Treatment cohort 5, 100 mg examplinib",C5,2001-01-09T09:50,2001-01-16T09:50,2001-01-16T09:50,2023000001,20230000011010022,M,48,YEARS,DEU,DM,"Treatment cohort 5, 100 mg examplinib",C5,WHITE,,2001-01-16T09:50
101,1010023,"Treatment cohort 5, 100 mg examplinib",C5,2001-01-09T13:01,2001-01-19T13:01,2001-01-19T13:01,2023000001,20230000011010023,M,19,YEARS,DEU,DM,"Treatment cohort 5, 100 mg examplinib",C5,WHITE,,2001-01-19T13:01
101,1010024,Screen Failure,SCRNFAIL,2001-01-09T08:37,NA,NA,2023000001,20230000011010024,M,19,YEARS,DEU,DM,Screen Failure,SCRNFAIL,WHITE,,NA
101,1010025,"Treatment cohort 5, 100 mg examplinib",C5,2001-01-11T10:12,2001-01-20T10:12,2001-01-20T10:12,2023000001,20230000011010025,M,41,YEARS,DEU,DM,"Treatment cohort 5, 100 mg examplinib",C5,WHITE,,2001-01-20T10:12
101,1010026,"Treatment cohort 5, 100 mg examplinib",C5,2001-01-12T08:48,2001-01-21T08:48,2001-01-21T08:48,2023000001,20230000011010026,M,27,YEARS,DEU,DM,"Treatment cohort 5, 100 mg examplinib",C5,BLACK OR AFRICAN AMERICAN,,2001-01-21T08:48
101,1010027,"Treatment cohort 6, 200 mg examplinib",C6,2001-01-13T07:59,2001-01-23T07:59,2001-01-23T07:59,2023000001,20230000011010027,M,27,YEARS,DEU,DM,"Treatment cohort 6, 200 mg examplinib",C6,WHITE,,2001-01-23T07:59
101,1010028,"Treatment cohort 6, 200 mg examplinib",C6,2001-01-14T08:51,2001-01-25T08:51,2001-01-25T08:51,2023000001,20230000011010028,M,41,YEARS,DEU,DM,"Treatment cohort 6, 200 mg examplinib",C6,WHITE,,2001-01-25T08:51
101,1010029,"Treatment cohort 6, 200 mg examplinib",C6,2001-01-16T10:21,2001-01-26T10:21,2001-01-26T10:21,2023000001,20230000011010029,M,33,YEARS,DEU,DM,"Treatment cohort 6, 200 mg examplinib",C6,WHITE,,2001-01-26T10:21
101,1010030,"Treatment cohort 7, 500 mg examplinib",C7,2001-01-17T09:29,2001-01-25T09:29,2001-01-25T09:29,2023000001,20230000011010030,M,48,YEARS,DEU,DM,"Treatment cohort 7, 500 mg examplinib",C7,WHITE,,2001-01-25T09:29
101,1010031,Screen Failure,SCRNFAIL,2001-01-17T10:42,NA,NA,2023000001,20230000011010031,M,22,YEARS,DEU,DM,Screen Failure,SCRNFAIL,WHITE,,NA
101,1010032,"Treatment cohort 7, 500 mg examplinib",C7,2001-01-18T09:48,2001-01-26T09:48,2001-01-26T09:48,2023000001,20230000011010032,M,55,YEARS,DEU,DM,"Treatment cohort 7, 500 mg examplinib",C7,WHITE,,2001-01-26T09:48
101,1010033,"Treatment cohort 7, 500 mg examplinib",C7,2001-01-19T09:34,2001-01-28T09:34,2001-01-28T09:34,2023000001,20230000011010033,M,42,YEARS,DEU,DM,"Treatment cohort 7, 500 mg examplinib",C7,BLACK OR AFRICAN AMERICAN,,2001-01-28T09:34
101,1010034,"Treatment cohort 7, 500 mg examplinib",C7,2001-01-19T10:10,2001-01-30T10:10,2001-01-30T10:10,2023000001,20230000011010034,M,42,YEARS,DEU,DM,"Treatment cohort 7, 500 mg examplinib",C7,WHITE,,2001-01-30T10:10
101,1010035,"Treatment cohort 7, 500 mg examplinib",C7,2001-01-19T09:18,2001-01-29T09:18,2001-01-29T09:18,2023000001,20230000011010035,M,46,YEARS,DEU,DM,"Treatment cohort 7, 500 mg examplinib",C7,BLACK OR AFRICAN AMERICAN,,2001-01-29T09:18
101,1010036,"Treatment cohort 7, 500 mg examplinib",C7,2001-01-19T11:49,2001-01-29T11:49,2001-01-29T11:49,2023000001,20230000011010036,M,37,YEARS,DEU,DM,"Treatment cohort 7, 500 mg examplinib",C7,BLACK OR AFRICAN AMERICAN,,2001-01-29T11:49
101,1010037,Screen Failure,SCRNFAIL,2001-01-19T10:09,NA,NA,2023000001,20230000011010037,M,32,YEARS,DEU,DM,Screen Failure,SCRNFAIL,WHITE,,NA
101,1010038,Screen Failure,SCRNFAIL,2001-01-19T10:15,NA,NA,2023000001,20230000011010038,M,41,YEARS,DEU,DM,Screen Failure,SCRNFAIL,WHITE,,NA
101,1010039,Screen Failure,SCRNFAIL,2001-01-20T10:40,NA,NA,2023000001,20230000011010039,M,54,YEARS,DEU,DM,Screen Failure,SCRNFAIL,WHITE,,NA
101,1010040,"Treatment cohort 8, 800 mg examplinib",C8,2001-01-22T10:55,2001-01-30T10:55,2001-01-30T10:55,2023000001,20230000011010040,M,26,YEARS,DEU,DM,"Treatment cohort 8, 800 mg examplinib",C8,WHITE,,2001-01-30T10:55
101,1010041,"Treatment cohort 8, 800 mg examplinib",C8,2001-01-22T10:47,2001-01-30T10:47,2001-01-30T10:47,2023000001,20230000011010041,M,46,YEARS,DEU,DM,"Treatment cohort 8, 800 mg examplinib",C8,WHITE,,2001-01-30T10:47
101,1010042,"Treatment cohort 8, 800 mg examplinib",C8,2001-01-22T10:23,2001-02-04T10:23,2001-02-04T10:23,2023000001,20230000011010042,M,34,YEARS,DEU,DM,"Treatment cohort 8, 800 mg examplinib",C8,WHITE,,2001-02-04T10:23
101,1010043,"Treatment cohort 8, 800 mg examplinib",C8,2001-01-23T08:48,2001-02-01T08:48,2001-02-01T08:48,2023000001,20230000011010043,M,49,YEARS,DEU,DM,"Treatment cohort 8, 800 mg examplinib",C8,WHITE,,2001-02-01T08:48
101,1010044,"Treatment cohort 8, 800 mg examplinib",C8,2001-01-27T11:38,2001-02-04T11:38,2001-02-04T11:38,2023000001,20230000011010044,M,51,YEARS,DEU,DM,"Treatment cohort 8, 800 mg examplinib",C8,WHITE,,2001-02-04T11:38
101,1010045,"Treatment cohort 8, 800 mg examplinib",C8,2001-01-27T10:28,2001-02-05T10:28,2001-02-05T10:28,2023000001,20230000011010045,M,54,YEARS,DEU,DM,"Treatment cohort 8, 800 mg examplinib",C8,WHITE,,2001-02-05T10:28
101,1010046,"Treatment cohort 9, 1000 mg examplinib",C9,2001-01-28T09:36,2001-02-05T09:36,2001-02-05T09:36,2023000001,20230000011010046,M,52,YEARS,DEU,DM,"Treatment cohort 9, 1000 mg examplinib",C9,WHITE,,2001-02-05T09:36
101,1010047,"Treatment cohort 9, 1000 mg examplinib",C9,2001-01-28T09:39,2001-02-05T09:39,2001-02-05T09:39,2023000001,20230000011010047,M,28,YEARS,DEU,DM,"Treatment cohort 9, 1000 mg examplinib",C9,BLACK OR AFRICAN AMERICAN,,2001-02-05T09:39
101,1010048,"Treatment cohort 9, 1000 mg examplinib",C9,2001-01-31T11:40,2001-02-09T11:40,2001-02-09T11:40,2023000001,20230000011010048,M,26,YEARS,DEU,DM,"Treatment cohort 9, 1000 mg examplinib",C9,WHITE,,2001-02-09T11:40
101,1010049,"Treatment cohort 10, 500 mg examplinib",C10,2001-01-31T09:46,2001-02-08T09:46,2001-02-08T09:46,2023000001,20230000011010049,M,47,YEARS,DEU,DM,"Treatment cohort 10, 500 mg examplinib",C10,WHITE,,2001-02-08T09:46
101,1010050,"Treatment cohort 10, 500 mg examplinib",C10,2001-02-04T08:10,2001-02-16T08:10,2001-02-16T08:10,2023000001,20230000011010050,M,24,YEARS,DEU,DM,"Treatment cohort 10, 500 mg examplinib",C10,WHITE,,2001-02-16T08:10
101,1010051,Screen Failure,SCRNFAIL,2001-02-05T10:33,NA,NA,2023000001,20230000011010051,M,49,YEARS,DEU,DM,Screen Failure,SCRNFAIL,WHITE,,NA
101,1010052,"Treatment cohort 10, 500 mg examplinib",C10,2001-02-06T07:16,2001-02-15T07:16,2001-02-15T07:16,2023000001,20230000011010052,M,54,YEARS,DEU,DM,"Treatment cohort 10, 500 mg examplinib",C10,WHITE,,2001-02-15T07:16
101,1010053,"Treatment cohort 10, 500 mg examplinib",C10,2001-02-08T09:16,2001-02-19T09:16,2001-02-19T09:16,2023000001,20230000011010053,M,36,YEARS,DEU,DM,"Treatment cohort 10, 500 mg examplinib",C10,WHITE,,2001-02-19T09:16
101,1010054,"Treatment cohort 10, 500 mg examplinib",C10,2001-02-08T09:29,2001-02-19T09:29,2001-02-19T09:29,2023000001,20230000011010054,M,19,YEARS,DEU,DM,"Treatment cohort 10, 500 mg examplinib",C10,WHITE,,2001-02-19T09:29
101,1010055,"Treatment cohort 10, 500 mg examplinib",C10,2001-02-08T09:10,2001-02-15T09:10,2001-02-15T09:10,2023000001,20230000011010055,M,41,YEARS,DEU,DM,"Treatment cohort 10, 500 mg examplinib",C10,ASIAN,,2001-02-15T09:10
101,1010056,Screen Failure,SCRNFAIL,2001-02-09T12:10,NA,NA,2023000001,20230000011010056,M,49,YEARS,DEU,DM,Screen Failure,SCRNFAIL,WHITE,,NA
101,1010057,Screen Failure,SCRNFAIL,2001-02-10T11:25,NA,NA,2023000001,20230000011010057,M,24,YEARS,DEU,DM,Screen Failure,SCRNFAIL,WHITE,,NA
101,1010058,"Treatment cohort 10, 500 mg examplinib",C10,2001-02-10T10:41,2001-02-20T10:41,2001-02-20T10:41,2023000001,20230000011010058,M,55,YEARS,DEU,DM,"Treatment cohort 10, 500 mg examplinib",C10,WHITE,,2001-02-20T10:41
101,1010059,"Treatment cohort 10, 500 mg examplinib",C10,2001-02-11T09:47,2001-02-22T09:47,2001-02-22T09:47,2023000001,20230000011010059,M,43,YEARS,DEU,DM,"Treatment cohort 10, 500 mg examplinib",C10,WHITE,,2001-02-22T09:47
101,1010060,"Treatment cohort 10, 500 mg examplinib",C10,2001-02-12T10:01,2001-02-19T10:01,2001-02-19T10:01,2023000001,20230000011010060,M,50,YEARS,DEU,DM,"Treatment cohort 10, 500 mg examplinib",C10,WHITE,,2001-02-19T10:01
101,1010061,"Treatment cohort 10, 500 mg examplinib",C10,2001-02-13T08:44,2001-02-21T08:44,2001-02-21T08:44,2023000001,20230000011010061,M,27,YEARS,DEU,DM,"Treatment cohort 10, 500 mg examplinib",C10,WHITE,,2001-02-21T08:44
101,1010062,"Treatment cohort 10, 500 mg examplinib",C10,2001-02-13T10:25,2001-02-22T10:25,2001-02-22T10:25,2023000001,20230000011010062,M,50,YEARS,DEU,DM,"Treatment cohort 10, 500 mg examplinib",C10,WHITE,,2001-02-22T10:25
101,1010063,"Treatment cohort 10, 500 mg examplinib",C10,2001-02-13T11:31,2001-02-23T11:31,2001-02-23T11:31,2023000001,20230000011010063,M,47,YEARS,DEU,DM,"Treatment cohort 10, 500 mg examplinib",C10,WHITE,,2001-02-23T11:31
