STUDYID,USUBJID,DOMAIN,EXDY,EXSTDTC,EXSTDY,EXENDY,EXENDTC,EXTRT,EXROUTE,EXDOSFRM,EXSEQ,EPOCH,EXDOSE
2023000001,20230000011010001,EX,1,2000-12-31T10:18,1,1,2000-12-31T10:18,EXAMPLINIB,ORAL,TABLET,1,OPEN LABEL TREATMENT 1,5
2023000001,20230000011010002,EX,1,2000-12-29T10:30,1,1,2000-12-29T10:30,EXAMPLINIB,ORAL,TABLET,1,OPEN LABEL TREATMENT 1,5
2023000001,20230000011010003,EX,1,2000-12-29T09:22,1,1,2000-12-29T09:22,EXAMPLINIB,ORAL,TABLET,1,OPEN LABEL TREATMENT 1,5
2023000001,20230000011010005,EX,1,2001-01-02T09:22,1,1,2001-01-02T09:22,EXAMPLINIB,ORAL,TABLET,1,OPEN LABEL TREATMENT 1,10
2023000001,20230000011010006,EX,1,2001-01-03T12:24,1,1,2001-01-03T12:24,EXAMPLINIB,ORAL,TABLET,1,OPEN LABEL TREATMENT 1,10
2023000001,20230000011010007,EX,1,2001-01-02T10:00,1,1,2001-01-02T10:00,EXAMPLINIB,ORAL,TABLET,1,OPEN LABEL TREATMENT 1,10
2023000001,20230000011010008,EX,1,2001-01-01T10:34,1,1,2001-01-01T10:34,EXAMPLINIB,ORAL,TABLET,1,OPEN LABEL TREATMENT 1,20
2023000001,20230000011010010,EX,1,2001-01-03T09:29,1,1,2001-01-03T09:29,EXAMPLINIB,ORAL,TABLET,1,OPEN LABEL TREATMENT 1,20
2023000001,20230000011010012,EX,1,2001-01-07T11:26,1,1,2001-01-07T11:26,EXAMPLINIB,ORAL,TABLET,1,OPEN LABEL TREATMENT 1,20
2023000001,20230000011010013,EX,1,2001-01-13T09:30,1,1,2001-01-13T09:30,EXAMPLINIB,ORAL,TABLET,1,OPEN LABEL TREATMENT 1,50
2023000001,20230000011010018,EX,1,2001-01-18T12:32,1,1,2001-01-18T12:32,EXAMPLINIB,ORAL,TABLET,1,OPEN LABEL TREATMENT 1,50
2023000001,20230000011010019,EX,1,2001-01-19T09:31,1,1,2001-01-19T09:31,EXAMPLINIB,ORAL,TABLET,1,OPEN LABEL TREATMENT 1,50
2023000001,20230000011010020,EX,1,2001-01-19T11:19,1,1,2001-01-19T11:19,EXAMPLINIB,ORAL,TABLET,1,OPEN LABEL TREATMENT 1,100
2023000001,20230000011010021,EX,1,2001-01-19T09:57,1,1,2001-01-19T09:57,EXAMPLINIB,ORAL,TABLET,1,OPEN LABEL TREATMENT 1,100
2023000001,20230000011010022,EX,1,2001-01-16T09:50,1,1,2001-01-16T09:50,EXAMPLINIB,ORAL,TABLET,1,OPEN LABEL TREATMENT 1,100
2023000001,20230000011010023,EX,1,2001-01-19T13:01,1,1,2001-01-19T13:01,EXAMPLINIB,ORAL,TABLET,1,OPEN LABEL TREATMENT 1,100
2023000001,20230000011010025,EX,1,2001-01-20T10:12,1,1,2001-01-20T10:12,EXAMPLINIB,ORAL,TABLET,1,OPEN LABEL TREATMENT 1,100
2023000001,20230000011010026,EX,1,2001-01-21T08:48,1,1,2001-01-21T08:48,EXAMPLINIB,ORAL,TABLET,1,OPEN LABEL TREATMENT 1,100
2023000001,20230000011010027,EX,1,2001-01-23T07:59,1,1,2001-01-23T07:59,EXAMPLINIB,ORAL,TABLET,1,OPEN LABEL TREATMENT 1,200
2023000001,20230000011010028,EX,1,2001-01-25T08:51,1,1,2001-01-25T08:51,EXAMPLINIB,ORAL,TABLET,1,OPEN LABEL TREATMENT 1,200
2023000001,20230000011010029,EX,1,2001-01-26T10:21,1,1,2001-01-26T10:21,EXAMPLINIB,ORAL,TABLET,1,OPEN LABEL TREATMENT 1,200
2023000001,20230000011010030,EX,1,2001-01-25T09:29,1,1,2001-01-25T09:29,EXAMPLINIB,ORAL,TABLET,1,OPEN LABEL TREATMENT 1,500
2023000001,20230000011010032,EX,1,2001-01-26T09:48,1,1,2001-01-26T09:48,EXAMPLINIB,ORAL,TABLET,1,OPEN LABEL TREATMENT 1,500
2023000001,20230000011010033,EX,1,2001-01-28T09:34,1,1,2001-01-28T09:34,EXAMPLINIB,ORAL,TABLET,1,OPEN LABEL TREATMENT 1,500
2023000001,20230000011010034,EX,1,2001-01-30T10:10,1,1,2001-01-30T10:10,EXAMPLINIB,ORAL,TABLET,1,OPEN LABEL TREATMENT 1,500
2023000001,20230000011010035,EX,1,2001-01-29T09:18,1,1,2001-01-29T09:18,EXAMPLINIB,ORAL,TABLET,1,OPEN LABEL TREATMENT 1,500
2023000001,20230000011010036,EX,1,2001-01-29T11:49,1,1,2001-01-29T11:49,EXAMPLINIB,ORAL,TABLET,1,OPEN LABEL TREATMENT 1,500
2023000001,20230000011010040,EX,1,2001-01-30T10:55,1,1,2001-01-30T10:55,EXAMPLINIB,ORAL,TABLET,1,OPEN LABEL TREATMENT 1,800
2023000001,20230000011010041,EX,1,2001-01-30T10:47,1,1,2001-01-30T10:47,EXAMPLINIB,ORAL,TABLET,1,OPEN LABEL TREATMENT 1,800
2023000001,20230000011010042,EX,1,2001-02-04T10:23,1,1,2001-02-04T10:23,EXAMPLINIB,ORAL,TABLET,1,OPEN LABEL TREATMENT 1,800
2023000001,20230000011010043,EX,1,2001-02-01T08:48,1,1,2001-02-01T08:48,EXAMPLINIB,ORAL,TABLET,1,OPEN LABEL TREATMENT 1,800
2023000001,20230000011010044,EX,1,2001-02-04T11:38,1,1,2001-02-04T11:38,EXAMPLINIB,ORAL,TABLET,1,OPEN LABEL TREATMENT 1,800
2023000001,20230000011010045,EX,1,2001-02-05T10:28,1,1,2001-02-05T10:28,EXAMPLINIB,ORAL,TABLET,1,OPEN LABEL TREATMENT 1,800
2023000001,20230000011010046,EX,1,2001-02-05T09:36,1,1,2001-02-05T09:36,EXAMPLINIB,ORAL,TABLET,1,OPEN LABEL TREATMENT 1,1000
2023000001,20230000011010047,EX,1,2001-02-05T09:39,1,1,2001-02-05T09:39,EXAMPLINIB,ORAL,TABLET,1,OPEN LABEL TREATMENT 1,1000
2023000001,20230000011010048,EX,1,2001-02-09T11:40,1,1,2001-02-09T11:40,EXAMPLINIB,ORAL,TABLET,1,OPEN LABEL TREATMENT 1,1000
2023000001,20230000011010049,EX,1,2001-02-08T09:46,1,1,2001-02-08T09:46,EXAMPLINIB,ORAL,TABLET,1,OPEN LABEL TREATMENT 1,500
2023000001,20230000011010050,EX,1,2001-02-16T08:10,1,1,2001-02-16T08:10,EXAMPLINIB,ORAL,TABLET,1,OPEN LABEL TREATMENT 1,500
2023000001,20230000011010052,EX,1,2001-02-15T07:16,1,1,2001-02-15T07:16,EXAMPLINIB,ORAL,TABLET,1,OPEN LABEL TREATMENT 1,500
2023000001,20230000011010053,EX,1,2001-02-19T09:16,1,1,2001-02-19T09:16,EXAMPLINIB,ORAL,TABLET,1,OPEN LABEL TREATMENT 1,500
2023000001,20230000011010054,EX,1,2001-02-19T09:29,1,1,2001-02-19T09:29,EXAMPLINIB,ORAL,TABLET,1,OPEN LABEL TREATMENT 1,500
2023000001,20230000011010055,EX,1,2001-02-15T09:10,1,1,2001-02-15T09:10,EXAMPLINIB,ORAL,TABLET,1,OPEN LABEL TREATMENT 1,500
2023000001,20230000011010058,EX,1,2001-02-20T10:41,1,1,2001-02-20T10:41,EXAMPLINIB,ORAL,TABLET,1,OPEN LABEL TREATMENT 1,500
2023000001,20230000011010059,EX,1,2001-02-22T09:47,1,1,2001-02-22T09:47,EXAMPLINIB,ORAL,TABLET,1,OPEN LABEL TREATMENT 1,500
2023000001,20230000011010060,EX,1,2001-02-19T10:01,1,1,2001-02-19T10:01,EXAMPLINIB,ORAL,TABLET,1,OPEN LABEL TREATMENT 1,500
2023000001,20230000011010061,EX,1,2001-02-21T08:44,1,1,2001-02-21T08:44,EXAMPLINIB,ORAL,TABLET,1,OPEN LABEL TREATMENT 1,500
2023000001,20230000011010062,EX,1,2001-02-22T10:25,1,1,2001-02-22T10:25,EXAMPLINIB,ORAL,TABLET,1,OPEN LABEL TREATMENT 1,500
2023000001,20230000011010063,EX,1,2001-02-23T11:31,1,1,2001-02-23T11:31,EXAMPLINIB,ORAL,TABLET,1,OPEN LABEL TREATMENT 1,500
