STUDYID,USUBJID,DOMAIN,LBSEQ,LBCAT,LBSPEC,VISITNUM,LBBLFL,LBDTC,LBTESTCD,LBTEST,LBORRES,LBORRESU,LBORNRLO,LBORNRHI,LBSTRESN,LBSTRESC,LBSTRESU,LBSTNRLO,LBSTNRHI
2023000001,20230000011010001,DM,1,BIOCHEMISTRY,SERUM,1,Y,2000-12-30T10:18,CREAT,Creatinine,0.7633767392355058,mg/dL,0.67,1.17,67.48250374841871,67.483,umol/L,59.2,103.4
2023000001,20230000011010002,DM,1,BIOCHEMISTRY,SERUM,1,Y,2000-12-28T10:30,CREAT,Creatinine,0.7363862946099835,mg/dL,0.67,1.17,65.09654844352255,65.097,umol/L,59.2,103.4
2023000001,20230000011010003,DM,1,BIOCHEMISTRY,SERUM,1,Y,2000-12-28T09:22,CREAT,Creatinine,1.0194605270203145,mg/dL,0.67,1.17,90.12031058859581,90.12,umol/L,59.2,103.4
2023000001,20230000011010004,DM,1,BIOCHEMISTRY,SERUM,1,Y,NA,CREAT,Creatinine,0.9195916750530251,mg/dL,0.67,1.17,81.29190407468742,81.292,umol/L,59.2,103.4
2023000001,20230000011010005,DM,1,BIOCHEMISTRY,SERUM,1,Y,2001-01-01T09:22,CREAT,Creatinine,0.6551683635947873,mg/dL,0.67,1.17,57.9168833417792,57.917,umol/L,59.2,103.4
2023000001,20230000011010006,DM,1,BIOCHEMISTRY,SERUM,1,Y,2001-01-02T12:24,CREAT,Creatinine,0.8571613765279346,mg/dL,0.67,1.17,75.77306568506943,75.773,umol/L,59.2,103.4
2023000001,20230000011010007,DM,1,BIOCHEMISTRY,SERUM,1,Y,2001-01-01T10:00,CREAT,Creatinine,0.7920342788371791,mg/dL,0.67,1.17,70.01583024920664,70.016,umol/L,59.2,103.4
2023000001,20230000011010008,DM,1,BIOCHEMISTRY,SERUM,1,Y,2000-12-31T10:34,CREAT,Creatinine,0.7251395181796136,mg/dL,0.67,1.17,64.10233340707785,64.102,umol/L,59.2,103.4
2023000001,20230000011010009,DM,1,BIOCHEMISTRY,SERUM,1,Y,NA,CREAT,Creatinine,0.589768552378505,mg/dL,0.67,1.17,52.13554003025985,52.136,umol/L,59.2,103.4
2023000001,20230000011010010,DM,1,BIOCHEMISTRY,SERUM,1,Y,2001-01-02T09:29,CREAT,Creatinine,0.8440259148393946,mg/dL,0.67,1.17,74.61189087180249,74.612,umol/L,59.2,103.4
2023000001,20230000011010011,DM,1,BIOCHEMISTRY,SERUM,1,Y,NA,CREAT,Creatinine,0.6577264031406198,mg/dL,0.67,1.17,58.14301403763079,58.143,umol/L,59.2,103.4
2023000001,20230000011010012,DM,1,BIOCHEMISTRY,SERUM,1,Y,2001-01-06T11:26,CREAT,Creatinine,0.6350951470275977,mg/dL,0.67,1.17,56.142410997239644,56.142,umol/L,59.2,103.4
2023000001,20230000011010013,DM,1,BIOCHEMISTRY,SERUM,1,Y,2001-01-12T09:30,CREAT,Creatinine,0.7908486150994617,mg/dL,0.67,1.17,69.91101757479242,69.911,umol/L,59.2,103.4
2023000001,20230000011010014,DM,1,BIOCHEMISTRY,SERUM,1,Y,NA,CREAT,Creatinine,0.7067820045905917,mg/dL,0.67,1.17,62.47952920580831,62.48,umol/L,59.2,103.4
2023000001,20230000011010015,DM,1,BIOCHEMISTRY,SERUM,1,Y,NA,CREAT,Creatinine,0.820360684960896,mg/dL,0.67,1.17,72.51988455054321,72.52,umol/L,59.2,103.4
2023000001,20230000011010016,DM,1,BIOCHEMISTRY,SERUM,1,Y,NA,CREAT,Creatinine,0.9248102074972782,mg/dL,0.67,1.17,81.7532223427594,81.753,umol/L,59.2,103.4
2023000001,20230000011010017,DM,1,BIOCHEMISTRY,SERUM,1,Y,NA,CREAT,Creatinine,0.9060915152709218,mg/dL,0.67,1.17,80.0984899499495,80.098,umol/L,59.2,103.4
2023000001,20230000011010018,DM,1,BIOCHEMISTRY,SERUM,1,Y,2001-01-17T12:32,CREAT,Creatinine,0.7705187364990531,mg/dL,0.67,1.17,68.1138563065163,68.114,umol/L,59.2,103.4
2023000001,20230000011010019,DM,1,BIOCHEMISTRY,SERUM,1,Y,2001-01-18T09:31,CREAT,Creatinine,0.6151037742876161,mg/dL,0.67,1.17,54.375173647025264,54.375,umol/L,59.2,103.4
2023000001,20230000011010020,DM,1,BIOCHEMISTRY,SERUM,1,Y,2001-01-18T11:19,CREAT,Creatinine,0.7461152726965365,mg/dL,0.67,1.17,65.95659010637384,65.957,umol/L,59.2,103.4
2023000001,20230000011010021,DM,1,BIOCHEMISTRY,SERUM,1,Y,2001-01-18T09:57,CREAT,Creatinine,0.8367238891119434,mg/dL,0.67,1.17,73.9663917974958,73.966,umol/L,59.2,103.4
2023000001,20230000011010022,DM,1,BIOCHEMISTRY,SERUM,1,Y,2001-01-15T09:50,CREAT,Creatinine,0.7298525761621871,mg/dL,0.67,1.17,64.51896773273735,64.519,umol/L,59.2,103.4
2023000001,20230000011010023,DM,1,BIOCHEMISTRY,SERUM,1,Y,2001-01-18T13:01,CREAT,Creatinine,0.718848540442149,mg/dL,0.67,1.17,63.54621097508597,63.546,umol/L,59.2,103.4
2023000001,20230000011010024,DM,1,BIOCHEMISTRY,SERUM,1,Y,NA,CREAT,Creatinine,0.9200836069884913,mg/dL,0.67,1.17,81.33539085778264,81.335,umol/L,59.2,103.4
2023000001,20230000011010025,DM,1,BIOCHEMISTRY,SERUM,1,Y,2001-01-19T10:12,CREAT,Creatinine,0.8713271869388308,mg/dL,0.67,1.17,77.02532332539265,77.025,umol/L,59.2,103.4
2023000001,20230000011010026,DM,1,BIOCHEMISTRY,SERUM,1,Y,2001-01-20T08:48,CREAT,Creatinine,1.1807408188034325,mg/dL,0.67,1.17,104.37748838222345,104.377,umol/L,59.2,103.4
2023000001,20230000011010027,DM,1,BIOCHEMISTRY,SERUM,1,Y,2001-01-22T07:59,CREAT,Creatinine,0.8981951986980262,mg/dL,0.67,1.17,79.40045556490553,79.4,umol/L,59.2,103.4
2023000001,20230000011010028,DM,1,BIOCHEMISTRY,SERUM,1,Y,2001-01-24T08:51,CREAT,Creatinine,0.849039696525196,mg/dL,0.67,1.17,75.05510917282733,75.055,umol/L,59.2,103.4
2023000001,20230000011010029,DM,1,BIOCHEMISTRY,SERUM,1,Y,2001-01-25T10:21,CREAT,Creatinine,0.7786440478878635,mg/dL,0.67,1.17,68.83213383328713,68.832,umol/L,59.2,103.4
2023000001,20230000011010030,DM,1,BIOCHEMISTRY,SERUM,1,Y,2001-01-24T09:29,CREAT,Creatinine,0.6322417642341926,mg/dL,0.67,1.17,55.89017195830263,55.89,umol/L,59.2,103.4
2023000001,20230000011010031,DM,1,BIOCHEMISTRY,SERUM,1,Y,NA,CREAT,Creatinine,0.6942382990629519,mg/dL,0.67,1.17,61.37066563716495,61.371,umol/L,59.2,103.4
2023000001,20230000011010032,DM,1,BIOCHEMISTRY,SERUM,1,Y,2001-01-25T09:48,CREAT,Creatinine,0.732537478831196,mg/dL,0.67,1.17,64.75631312867773,64.756,umol/L,59.2,103.4
2023000001,20230000011010033,DM,1,BIOCHEMISTRY,SERUM,1,Y,2001-01-27T09:34,CREAT,Creatinine,0.9571690476878874,mg/dL,0.67,1.17,84.61374381560925,84.614,umol/L,59.2,103.4
2023000001,20230000011010034,DM,1,BIOCHEMISTRY,SERUM,1,Y,2001-01-29T10:10,CREAT,Creatinine,0.7529868573699969,mg/dL,0.67,1.17,66.56403819150773,66.564,umol/L,59.2,103.4
2023000001,20230000011010035,DM,1,BIOCHEMISTRY,SERUM,1,Y,2001-01-28T09:18,CREAT,Creatinine,0.8263677503531135,mg/dL,0.67,1.17,73.050909131215235,73.051,umol/L,59.2,103.4
2023000001,20230000011010036,DM,1,BIOCHEMISTRY,SERUM,1,Y,2001-01-28T11:49,CREAT,Creatinine,0.9458816956572623,mg/dL,0.67,1.17,83.615941896102,83.616,umol/L,59.2,103.4
2023000001,20230000011010037,DM,1,BIOCHEMISTRY,SERUM,1,Y,NA,CREAT,Creatinine,0.6629700836241991,mg/dL,0.67,1.17,58.6065553923792,58.607,umol/L,59.2,103.4
2023000001,20230000011010038,DM,1,BIOCHEMISTRY,SERUM,1,Y,NA,CREAT,Creatinine,0.6547696666256598,mg/dL,0.67,1.17,57.88163852970833,57.882,umol/L,59.2,103.4
2023000001,20230000011010039,DM,1,BIOCHEMISTRY,SERUM,1,Y,NA,CREAT,Creatinine,0.9128869104967129,mg/dL,0.67,1.17,80.69920288790942,80.699,umol/L,59.2,103.4
2023000001,20230000011010040,DM,1,BIOCHEMISTRY,SERUM,1,Y,2001-01-29T10:55,CREAT,Creatinine,0.8348884519353333,mg/dL,0.67,1.17,73.80413915108348,73.804,umol/L,59.2,103.4
2023000001,20230000011010041,DM,1,BIOCHEMISTRY,SERUM,1,Y,2001-01-29T10:47,CREAT,Creatinine,0.6466131674958362,mg/dL,0.67,1.17,57.16060400663192,57.161,umol/L,59.2,103.4
2023000001,20230000011010042,DM,1,BIOCHEMISTRY,SERUM,1,Y,2001-02-03T10:23,CREAT,Creatinine,0.9587661382815641,mg/dL,0.67,1.17,84.75492662409027,84.755,umol/L,59.2,103.4
2023000001,20230000011010043,DM,1,BIOCHEMISTRY,SERUM,1,Y,2001-01-31T08:48,CREAT,Creatinine,0.7127134428769338,mg/dL,0.67,1.17,63.00386835032096,63.004,umol/L,59.2,103.4
2023000001,20230000011010044,DM,1,BIOCHEMISTRY,SERUM,1,Y,2001-02-03T11:38,CREAT,Creatinine,0.7321166576432812,mg/dL,0.67,1.17,64.71911253566606,64.719,umol/L,59.2,103.4
2023000001,20230000011010045,DM,1,BIOCHEMISTRY,SERUM,1,Y,2001-02-04T10:28,CREAT,Creatinine,0.5273972687736072,mg/dL,0.67,1.17,46.621918559586874,46.622,umol/L,59.2,103.4
2023000001,20230000011010046,DM,1,BIOCHEMISTRY,SERUM,1,Y,2001-02-04T09:36,CREAT,Creatinine,1.2552805810511256,mg/dL,0.67,1.17,110.96680336491951,110.967,umol/L,59.2,103.4
2023000001,20230000011010047,DM,1,BIOCHEMISTRY,SERUM,1,Y,2001-02-04T09:39,CREAT,Creatinine,0.9959093509885812,mg/dL,0.67,1.17,88.0383866273906,88.038,umol/L,59.2,103.4
2023000001,20230000011010048,DM,1,BIOCHEMISTRY,SERUM,1,Y,2001-02-08T11:40,CREAT,Creatinine,0.7008423706196389,mg/dL,0.67,1.17,61.954465562776086,61.954,umol/L,59.2,103.4
2023000001,20230000011010049,DM,1,BIOCHEMISTRY,SERUM,1,Y,2001-02-07T09:46,CREAT,Creatinine,0.6140052960529302,mg/dL,0.67,1.17,54.278068171079035,54.278,umol/L,59.2,103.4
2023000001,20230000011010050,DM,1,BIOCHEMISTRY,SERUM,1,Y,2001-02-15T08:10,CREAT,Creatinine,0.6925495092036762,mg/dL,0.67,1.17,61.22137661360498,61.221,umol/L,59.2,103.4
2023000001,20230000011010051,DM,1,BIOCHEMISTRY,SERUM,1,Y,NA,CREAT,Creatinine,0.9426600299667123,mg/dL,0.67,1.17,83.33114664905737,83.331,umol/L,59.2,103.4
2023000001,20230000011010052,DM,1,BIOCHEMISTRY,SERUM,1,Y,2001-02-14T07:16,CREAT,Creatinine,0.5794070920046882,mg/dL,0.67,1.17,51.219586933214444,51.22,umol/L,59.2,103.4
2023000001,20230000011010053,DM,1,BIOCHEMISTRY,SERUM,1,Y,2001-02-18T09:16,CREAT,Creatinine,0.9723813918416683,mg/dL,0.67,1.17,85.95851503880348,85.959,umol/L,59.2,103.4
2023000001,20230000011010054,DM,1,BIOCHEMISTRY,SERUM,1,Y,2001-02-18T09:29,CREAT,Creatinine,0.8967249031929903,mg/dL,0.67,1.17,79.27048144226035,79.27,umol/L,59.2,103.4
2023000001,20230000011010055,DM,1,BIOCHEMISTRY,SERUM,1,Y,2001-02-14T09:10,CREAT,Creatinine,0.7529196851918664,mg/dL,0.67,1.17,66.55810017096098,66.558,umol/L,59.2,103.4
2023000001,20230000011010056,DM,1,BIOCHEMISTRY,SERUM,1,Y,NA,CREAT,Creatinine,0.5795769341309792,mg/dL,0.67,1.17,51.234600977178566,51.235,umol/L,59.2,103.4
2023000001,20230000011010057,DM,1,BIOCHEMISTRY,SERUM,1,Y,NA,CREAT,Creatinine,0.7185491064638873,mg/dL,0.67,1.17,63.51974101140764,63.52,umol/L,59.2,103.4
2023000001,20230000011010058,DM,1,BIOCHEMISTRY,SERUM,1,Y,2001-02-19T10:41,CREAT,Creatinine,0.6896334734806544,mg/dL,0.67,1.17,60.963599055689855,60.964,umol/L,59.2,103.4
2023000001,20230000011010059,DM,1,BIOCHEMISTRY,SERUM,1,Y,2001-02-21T09:47,CREAT,Creatinine,0.6108194730236958,mg/dL,0.67,1.17,53.99644141529471,53.996,umol/L,59.2,103.4
2023000001,20230000011010060,DM,1,BIOCHEMISTRY,SERUM,1,Y,2001-02-18T10:01,CREAT,Creatinine,0.6648779967496331,mg/dL,0.67,1.17,58.77521491266757,58.775,umol/L,59.2,103.4
2023000001,20230000011010061,DM,1,BIOCHEMISTRY,SERUM,1,Y,2001-02-20T08:44,CREAT,Creatinine,0.8922138969152815,mg/dL,0.67,1.17,78.8717084873109,78.872,umol/L,59.2,103.4
2023000001,20230000011010062,DM,1,BIOCHEMISTRY,SERUM,1,Y,2001-02-21T10:25,CREAT,Creatinine,0.6876029565788354,mg/dL,0.67,1.17,60.78410136156906,60.784,umol/L,59.2,103.4
2023000001,20230000011010063,DM,1,BIOCHEMISTRY,SERUM,1,Y,2001-02-22T11:31,CREAT,Creatinine,0.7633920381727961,mg/dL,0.67,1.17,67.48385617447518,67.484,umol/L,59.2,103.4
