USUBJID,PCTESTCD,PCSTRESN,PCTEST,STUDYID,DOMAIN,PCELTM,PCTPTNUM,PCTPT,PCDTC,PCSEQ,PCSPEC,PCRFTDTC,EPOCH
20230000011010001,RS2023,0,RS2023,2023000001,PC,PT0H,0,PREDOSE,2000-12-31T10:18,1,PLASMA,2000-12-31T10:18,OPEN LABEL TREATMENT
20230000011010001,RS2023487A,0,RS2023487A,2023000001,PC,PT0H,0,PREDOSE,2000-12-31T10:18,2,PLASMA,2000-12-31T10:18,OPEN LABEL TREATMENT
20230000011010001,RS2023,2.447,RS2023,2023000001,PC,PT0.5H,0.5,HOUR 0.5,2000-12-31T10:48,3,PLASMA,2000-12-31T10:18,OPEN LABEL TREATMENT
20230000011010001,RS2023487A,0.4573,RS2023487A,2023000001,PC,PT0.5H,0.5,HOUR 0.5,2000-12-31T10:48,4,PLASMA,2000-12-31T10:18,OPEN LABEL TREATMENT
20230000011010001,RS2023,7.2445,RS2023,2023000001,PC,PT1H,1,HOUR 1,2000-12-31T11:18,5,PLASMA,2000-12-31T10:18,OPEN LABEL TREATMENT
20230000011010001,RS2023487A,3.0422,RS2023487A,2023000001,PC,PT1H,1,HOUR 1,2000-12-31T11:18,6,PLASMA,2000-12-31T10:18,OPEN LABEL TREATMENT
20230000011010001,RS2023,15.7476,RS2023,2023000001,PC,PT1.5H,1.5,HOUR 1.5,2000-12-31T11:48,7,PLASMA,2000-12-31T10:18,OPEN LABEL TREATMENT
20230000011010001,RS2023487A,8.578,RS2023487A,2023000001,PC,PT1.5H,1.5,HOUR 1.5,2000-12-31T11:48,8,PLASMA,2000-12-31T10:18,OPEN LABEL TREATMENT
20230000011010001,RS2023,20.9229,RS2023,2023000001,PC,PT2H,2,HOUR 2,2000-12-31T12:18,9,PLASMA,2000-12-31T10:18,OPEN LABEL TREATMENT
20230000011010001,RS2023487A,16.59,RS2023487A,2023000001,PC,PT2H,2,HOUR 2,2000-12-31T12:18,10,PLASMA,2000-12-31T10:18,OPEN LABEL TREATMENT
20230000011010001,RS2023,14.7666,RS2023,2023000001,PC,PT3H,3,HOUR 3,2000-12-31T13:18,11,PLASMA,2000-12-31T10:18,OPEN LABEL TREATMENT
20230000011010001,RS2023487A,32.4735,RS2023487A,2023000001,PC,PT3H,3,HOUR 3,2000-12-31T13:18,12,PLASMA,2000-12-31T10:18,OPEN LABEL TREATMENT
20230000011010001,RS2023,13.2737,RS2023,2023000001,PC,PT4H,4,HOUR 4,2000-12-31T14:18,13,PLASMA,2000-12-31T10:18,OPEN LABEL TREATMENT
20230000011010001,RS2023487A,42.7086,RS2023487A,2023000001,PC,PT4H,4,HOUR 4,2000-12-31T14:18,14,PLASMA,2000-12-31T10:18,OPEN LABEL TREATMENT
20230000011010001,RS2023,5.4841,RS2023,2023000001,PC,PT6H,6,HOUR 6,2000-12-31T16:18,15,PLASMA,2000-12-31T10:18,OPEN LABEL TREATMENT
20230000011010001,RS2023487A,46.6772,RS2023487A,2023000001,PC,PT6H,6,HOUR 6,2000-12-31T16:18,16,PLASMA,2000-12-31T10:18,OPEN LABEL TREATMENT
20230000011010001,RS2023,2.1245,RS2023,2023000001,PC,PT8H,8,HOUR 8,2000-12-31T18:18,17,PLASMA,2000-12-31T10:18,OPEN LABEL TREATMENT
20230000011010001,RS2023487A,39.8621,RS2023487A,2023000001,PC,PT8H,8,HOUR 8,2000-12-31T18:18,18,PLASMA,2000-12-31T10:18,OPEN LABEL TREATMENT
20230000011010001,RS2023,1.1647,RS2023,2023000001,PC,PT10H,10,HOUR 10,2000-12-31T20:18,19,PLASMA,2000-12-31T10:18,OPEN LABEL TREATMENT
20230000011010001,RS2023487A,31.0149,RS2023487A,2023000001,PC,PT10H,10,HOUR 10,2000-12-31T20:18,20,PLASMA,2000-12-31T10:18,OPEN LABEL TREATMENT
20230000011010001,RS2023,0.5905,RS2023,2023000001,PC,PT12H,12,HOUR 12,2000-12-31T22:18,21,PLASMA,2000-12-31T10:18,OPEN LABEL TREATMENT
20230000011010001,RS2023487A,23.2788,RS2023487A,2023000001,PC,PT12H,12,HOUR 12,2000-12-31T22:18,22,PLASMA,2000-12-31T10:18,OPEN LABEL TREATMENT
20230000011010001,RS2023,0.1568,RS2023,2023000001,PC,PT24H,24,HOUR 24,2001-01-01T10:18,23,PLASMA,2000-12-31T10:18,OPEN LABEL TREATMENT
20230000011010001,RS2023487A,4.1966,RS2023487A,2023000001,PC,PT24H,24,HOUR 24,2001-01-01T10:18,24,PLASMA,2000-12-31T10:18,OPEN LABEL TREATMENT
20230000011010001,RS2023,0.0425,RS2023,2023000001,PC,PT48H,48,HOUR 48,2001-01-02T10:18,25,PLASMA,2000-12-31T10:18,OPEN LABEL TREATMENT
20230000011010001,RS2023487A,0.4551,RS2023487A,2023000001,PC,PT48H,48,HOUR 48,2001-01-02T10:18,26,PLASMA,2000-12-31T10:18,OPEN LABEL TREATMENT
20230000011010001,RS2023,0.0129,RS2023,2023000001,PC,PT72H,72,HOUR 72,2001-01-03T10:18,27,PLASMA,2000-12-31T10:18,OPEN LABEL TREATMENT
20230000011010001,RS2023487A,0.1094,RS2023487A,2023000001,PC,PT72H,72,HOUR 72,2001-01-03T10:18,28,PLASMA,2000-12-31T10:18,OPEN LABEL TREATMENT
20230000011010001,RS2023,0.0031,RS2023,2023000001,PC,PT96H,96,HOUR 96,2001-01-04T10:18,29,PLASMA,2000-12-31T10:18,OPEN LABEL TREATMENT
20230000011010001,RS2023487A,0.0286,RS2023487A,2023000001,PC,PT96H,96,HOUR 96,2001-01-04T10:18,30,PLASMA,2000-12-31T10:18,OPEN LABEL TREATMENT
20230000011010001,RS2023,2e-4,RS2023,2023000001,PC,PT144H,144,HOUR 144,2001-01-06T10:18,31,PLASMA,2000-12-31T10:18,OPEN LABEL TREATMENT
20230000011010001,RS2023487A,0.002,RS2023487A,2023000001,PC,PT144H,144,HOUR 144,2001-01-06T10:18,32,PLASMA,2000-12-31T10:18,OPEN LABEL TREATMENT
20230000011010001,RS2023,1e-4,RS2023,2023000001,PC,PT168H,168,HOUR 168,2001-01-07T10:18,33,PLASMA,2000-12-31T10:18,OPEN LABEL TREATMENT
20230000011010001,RS2023487A,5e-4,RS2023487A,2023000001,PC,PT168H,168,HOUR 168,2001-01-07T10:18,34,PLASMA,2000-12-31T10:18,OPEN LABEL TREATMENT
20230000011010002,RS2023,0,RS2023,2023000001,PC,PT0H,0,PREDOSE,2000-12-29T10:30,1,PLASMA,2000-12-29T10:30,OPEN LABEL TREATMENT
20230000011010002,RS2023487A,0,RS2023487A,2023000001,PC,PT0H,0,PREDOSE,2000-12-29T10:30,2,PLASMA,2000-12-29T10:30,OPEN LABEL TREATMENT
20230000011010002,RS2023,3.6155,RS2023,2023000001,PC,PT0.5H,0.5,HOUR 0.5,2000-12-29T11:00,3,PLASMA,2000-12-29T10:30,OPEN LABEL TREATMENT
20230000011010002,RS2023487A,0.5833,RS2023487A,2023000001,PC,PT0.5H,0.5,HOUR 0.5,2000-12-29T11:00,4,PLASMA,2000-12-29T10:30,OPEN LABEL TREATMENT
20230000011010002,RS2023,12.7701,RS2023,2023000001,PC,PT1H,1,HOUR 1,2000-12-29T11:30,5,PLASMA,2000-12-29T10:30,OPEN LABEL TREATMENT
20230000011010002,RS2023487A,3.761,RS2023487A,2023000001,PC,PT1H,1,HOUR 1,2000-12-29T11:30,6,PLASMA,2000-12-29T10:30,OPEN LABEL TREATMENT
20230000011010002,RS2023,22.8224,RS2023,2023000001,PC,PT1.5H,1.5,HOUR 1.5,2000-12-29T12:00,7,PLASMA,2000-12-29T10:30,OPEN LABEL TREATMENT
20230000011010002,RS2023487A,10.3267,RS2023487A,2023000001,PC,PT1.5H,1.5,HOUR 1.5,2000-12-29T12:00,8,PLASMA,2000-12-29T10:30,OPEN LABEL TREATMENT
20230000011010002,RS2023,27.164,RS2023,2023000001,PC,PT2H,2,HOUR 2,2000-12-29T12:30,9,PLASMA,2000-12-29T10:30,OPEN LABEL TREATMENT
20230000011010002,RS2023487A,19.4308,RS2023487A,2023000001,PC,PT2H,2,HOUR 2,2000-12-29T12:30,10,PLASMA,2000-12-29T10:30,OPEN LABEL TREATMENT
20230000011010002,RS2023,25.5941,RS2023,2023000001,PC,PT3H,3,HOUR 3,2000-12-29T13:30,11,PLASMA,2000-12-29T10:30,OPEN LABEL TREATMENT
20230000011010002,RS2023487A,36.06,RS2023487A,2023000001,PC,PT3H,3,HOUR 3,2000-12-29T13:30,12,PLASMA,2000-12-29T10:30,OPEN LABEL TREATMENT
20230000011010002,RS2023,19.6635,RS2023,2023000001,PC,PT4H,4,HOUR 4,2000-12-29T14:30,13,PLASMA,2000-12-29T10:30,OPEN LABEL TREATMENT
20230000011010002,RS2023487A,45.5327,RS2023487A,2023000001,PC,PT4H,4,HOUR 4,2000-12-29T14:30,14,PLASMA,2000-12-29T10:30,OPEN LABEL TREATMENT
20230000011010002,RS2023,11.6943,RS2023,2023000001,PC,PT6H,6,HOUR 6,2000-12-29T16:30,15,PLASMA,2000-12-29T10:30,OPEN LABEL TREATMENT
20230000011010002,RS2023487A,47.1621,RS2023487A,2023000001,PC,PT6H,6,HOUR 6,2000-12-29T16:30,16,PLASMA,2000-12-29T10:30,OPEN LABEL TREATMENT
20230000011010002,RS2023,4.9929,RS2023,2023000001,PC,PT8H,8,HOUR 8,2000-12-29T18:30,17,PLASMA,2000-12-29T10:30,OPEN LABEL TREATMENT
20230000011010002,RS2023487A,38.6782,RS2023487A,2023000001,PC,PT8H,8,HOUR 8,2000-12-29T18:30,18,PLASMA,2000-12-29T10:30,OPEN LABEL TREATMENT
20230000011010002,RS2023,2.4357,RS2023,2023000001,PC,PT10H,10,HOUR 10,2000-12-29T20:30,19,PLASMA,2000-12-29T10:30,OPEN LABEL TREATMENT
20230000011010002,RS2023487A,28.7864,RS2023487A,2023000001,PC,PT10H,10,HOUR 10,2000-12-29T20:30,20,PLASMA,2000-12-29T10:30,OPEN LABEL TREATMENT
20230000011010002,RS2023,1.7802,RS2023,2023000001,PC,PT12H,12,HOUR 12,2000-12-29T22:30,21,PLASMA,2000-12-29T10:30,OPEN LABEL TREATMENT
20230000011010002,RS2023487A,20.4765,RS2023487A,2023000001,PC,PT12H,12,HOUR 12,2000-12-29T22:30,22,PLASMA,2000-12-29T10:30,OPEN LABEL TREATMENT
20230000011010002,RS2023,0.2912,RS2023,2023000001,PC,PT24H,24,HOUR 24,2000-12-30T10:30,23,PLASMA,2000-12-29T10:30,OPEN LABEL TREATMENT
20230000011010002,RS2023487A,2.872,RS2023487A,2023000001,PC,PT24H,24,HOUR 24,2000-12-30T10:30,24,PLASMA,2000-12-29T10:30,OPEN LABEL TREATMENT
20230000011010002,RS2023,0.1354,RS2023,2023000001,PC,PT48H,48,HOUR 48,2000-12-31T10:30,25,PLASMA,2000-12-29T10:30,OPEN LABEL TREATMENT
20230000011010002,RS2023487A,0.6173,RS2023487A,2023000001,PC,PT48H,48,HOUR 48,2000-12-31T10:30,26,PLASMA,2000-12-29T10:30,OPEN LABEL TREATMENT
20230000011010002,RS2023,0.0495,RS2023,2023000001,PC,PT72H,72,HOUR 72,2001-01-01T10:30,27,PLASMA,2000-12-29T10:30,OPEN LABEL TREATMENT
20230000011010002,RS2023487A,0.2285,RS2023487A,2023000001,PC,PT72H,72,HOUR 72,2001-01-01T10:30,28,PLASMA,2000-12-29T10:30,OPEN LABEL TREATMENT
20230000011010002,RS2023,0.0221,RS2023,2023000001,PC,PT96H,96,HOUR 96,2001-01-02T10:30,29,PLASMA,2000-12-29T10:30,OPEN LABEL TREATMENT
20230000011010002,RS2023487A,0.0851,RS2023487A,2023000001,PC,PT96H,96,HOUR 96,2001-01-02T10:30,30,PLASMA,2000-12-29T10:30,OPEN LABEL TREATMENT
20230000011010002,RS2023,0.0028,RS2023,2023000001,PC,PT144H,144,HOUR 144,2001-01-04T10:30,31,PLASMA,2000-12-29T10:30,OPEN LABEL TREATMENT
20230000011010002,RS2023487A,0.0118,RS2023487A,2023000001,PC,PT144H,144,HOUR 144,2001-01-04T10:30,32,PLASMA,2000-12-29T10:30,OPEN LABEL TREATMENT
20230000011010002,RS2023,0.0011,RS2023,2023000001,PC,PT168H,168,HOUR 168,2001-01-05T10:30,33,PLASMA,2000-12-29T10:30,OPEN LABEL TREATMENT
20230000011010002,RS2023487A,0.0044,RS2023487A,2023000001,PC,PT168H,168,HOUR 168,2001-01-05T10:30,34,PLASMA,2000-12-29T10:30,OPEN LABEL TREATMENT
20230000011010003,RS2023,0,RS2023,2023000001,PC,PT0H,0,PREDOSE,2000-12-29T09:22,1,PLASMA,2000-12-29T09:22,OPEN LABEL TREATMENT
20230000011010003,RS2023487A,0,RS2023487A,2023000001,PC,PT0H,0,PREDOSE,2000-12-29T09:22,2,PLASMA,2000-12-29T09:22,OPEN LABEL TREATMENT
20230000011010003,RS2023,1.1647,RS2023,2023000001,PC,PT0.5H,0.5,HOUR 0.5,2000-12-29T09:52,3,PLASMA,2000-12-29T09:22,OPEN LABEL TREATMENT
20230000011010003,RS2023487A,0.5421,RS2023487A,2023000001,PC,PT0.5H,0.5,HOUR 0.5,2000-12-29T09:52,4,PLASMA,2000-12-29T09:22,OPEN LABEL TREATMENT
20230000011010003,RS2023,4.0486,RS2023,2023000001,PC,PT1H,1,HOUR 1,2000-12-29T10:22,5,PLASMA,2000-12-29T09:22,OPEN LABEL TREATMENT
20230000011010003,RS2023487A,3.6856,RS2023487A,2023000001,PC,PT1H,1,HOUR 1,2000-12-29T10:22,6,PLASMA,2000-12-29T09:22,OPEN LABEL TREATMENT
20230000011010003,RS2023,7.1668,RS2023,2023000001,PC,PT1.5H,1.5,HOUR 1.5,2000-12-29T10:52,7,PLASMA,2000-12-29T09:22,OPEN LABEL TREATMENT
20230000011010003,RS2023487A,10.6041,RS2023487A,2023000001,PC,PT1.5H,1.5,HOUR 1.5,2000-12-29T10:52,8,PLASMA,2000-12-29T09:22,OPEN LABEL TREATMENT
20230000011010003,RS2023,12.2003,RS2023,2023000001,PC,PT2H,2,HOUR 2,2000-12-29T11:22,9,PLASMA,2000-12-29T09:22,OPEN LABEL TREATMENT
20230000011010003,RS2023487A,21.4956,RS2023487A,2023000001,PC,PT2H,2,HOUR 2,2000-12-29T11:22,10,PLASMA,2000-12-29T09:22,OPEN LABEL TREATMENT
20230000011010003,RS2023,17.4781,RS2023,2023000001,PC,PT3H,3,HOUR 3,2000-12-29T12:22,11,PLASMA,2000-12-29T09:22,OPEN LABEL TREATMENT
20230000011010003,RS2023487A,50.1913,RS2023487A,2023000001,PC,PT3H,3,HOUR 3,2000-12-29T12:22,12,PLASMA,2000-12-29T09:22,OPEN LABEL TREATMENT
20230000011010003,RS2023,12.1948,RS2023,2023000001,PC,PT4H,4,HOUR 4,2000-12-29T13:22,13,PLASMA,2000-12-29T09:22,OPEN LABEL TREATMENT
20230000011010003,RS2023487A,74.2408,RS2023487A,2023000001,PC,PT4H,4,HOUR 4,2000-12-29T13:22,14,PLASMA,2000-12-29T09:22,OPEN LABEL TREATMENT
20230000011010003,RS2023,7.7903,RS2023,2023000001,PC,PT6H,6,HOUR 6,2000-12-29T15:22,15,PLASMA,2000-12-29T09:22,OPEN LABEL TREATMENT
20230000011010003,RS2023487A,92.1521,RS2023487A,2023000001,PC,PT6H,6,HOUR 6,2000-12-29T15:22,16,PLASMA,2000-12-29T09:22,OPEN LABEL TREATMENT
20230000011010003,RS2023,4.089,RS2023,2023000001,PC,PT8H,8,HOUR 8,2000-12-29T17:22,17,PLASMA,2000-12-29T09:22,OPEN LABEL TREATMENT
20230000011010003,RS2023487A,82.9251,RS2023487A,2023000001,PC,PT8H,8,HOUR 8,2000-12-29T17:22,18,PLASMA,2000-12-29T09:22,OPEN LABEL TREATMENT
20230000011010003,RS2023,1.6925,RS2023,2023000001,PC,PT10H,10,HOUR 10,2000-12-29T19:22,19,PLASMA,2000-12-29T09:22,OPEN LABEL TREATMENT
20230000011010003,RS2023487A,64.8215,RS2023487A,2023000001,PC,PT10H,10,HOUR 10,2000-12-29T19:22,20,PLASMA,2000-12-29T09:22,OPEN LABEL TREATMENT
20230000011010003,RS2023,0.8677,RS2023,2023000001,PC,PT12H,12,HOUR 12,2000-12-29T21:22,21,PLASMA,2000-12-29T09:22,OPEN LABEL TREATMENT
20230000011010003,RS2023487A,47.2149,RS2023487A,2023000001,PC,PT12H,12,HOUR 12,2000-12-29T21:22,22,PLASMA,2000-12-29T09:22,OPEN LABEL TREATMENT
20230000011010003,RS2023,0.0913,RS2023,2023000001,PC,PT24H,24,HOUR 24,2000-12-30T09:22,23,PLASMA,2000-12-29T09:22,OPEN LABEL TREATMENT
20230000011010003,RS2023487A,5.3385,RS2023487A,2023000001,PC,PT24H,24,HOUR 24,2000-12-30T09:22,24,PLASMA,2000-12-29T09:22,OPEN LABEL TREATMENT
20230000011010003,RS2023,0.0296,RS2023,2023000001,PC,PT48H,48,HOUR 48,2000-12-31T09:22,25,PLASMA,2000-12-29T09:22,OPEN LABEL TREATMENT
20230000011010003,RS2023487A,0.5943,RS2023487A,2023000001,PC,PT48H,48,HOUR 48,2000-12-31T09:22,26,PLASMA,2000-12-29T09:22,OPEN LABEL TREATMENT
20230000011010003,RS2023,0.0162,RS2023,2023000001,PC,PT72H,72,HOUR 72,2001-01-01T09:22,27,PLASMA,2000-12-29T09:22,OPEN LABEL TREATMENT
20230000011010003,RS2023487A,0.2376,RS2023487A,2023000001,PC,PT72H,72,HOUR 72,2001-01-01T09:22,28,PLASMA,2000-12-29T09:22,OPEN LABEL TREATMENT
20230000011010003,RS2023,0.006,RS2023,2023000001,PC,PT96H,96,HOUR 96,2001-01-02T09:22,29,PLASMA,2000-12-29T09:22,OPEN LABEL TREATMENT
20230000011010003,RS2023487A,0.0987,RS2023487A,2023000001,PC,PT96H,96,HOUR 96,2001-01-02T09:22,30,PLASMA,2000-12-29T09:22,OPEN LABEL TREATMENT
20230000011010003,RS2023,0.001,RS2023,2023000001,PC,PT144H,144,HOUR 144,2001-01-04T09:22,31,PLASMA,2000-12-29T09:22,OPEN LABEL TREATMENT
20230000011010003,RS2023487A,0.0171,RS2023487A,2023000001,PC,PT144H,144,HOUR 144,2001-01-04T09:22,32,PLASMA,2000-12-29T09:22,OPEN LABEL TREATMENT
20230000011010003,RS2023,4e-4,RS2023,2023000001,PC,PT168H,168,HOUR 168,2001-01-05T09:22,33,PLASMA,2000-12-29T09:22,OPEN LABEL TREATMENT
20230000011010003,RS2023487A,0.0071,RS2023487A,2023000001,PC,PT168H,168,HOUR 168,2001-01-05T09:22,34,PLASMA,2000-12-29T09:22,OPEN LABEL TREATMENT
20230000011010005,RS2023,0,RS2023,2023000001,PC,PT0H,0,PREDOSE,2001-01-02T09:22,1,PLASMA,2001-01-02T09:22,OPEN LABEL TREATMENT
20230000011010005,RS2023487A,0,RS2023487A,2023000001,PC,PT0H,0,PREDOSE,2001-01-02T09:22,2,PLASMA,2001-01-02T09:22,OPEN LABEL TREATMENT
20230000011010005,RS2023,4.5304,RS2023,2023000001,PC,PT0.5H,0.5,HOUR 0.5,2001-01-02T09:52,3,PLASMA,2001-01-02T09:22,OPEN LABEL TREATMENT
20230000011010005,RS2023487A,0.9151,RS2023487A,2023000001,PC,PT0.5H,0.5,HOUR 0.5,2001-01-02T09:52,4,PLASMA,2001-01-02T09:22,OPEN LABEL TREATMENT
20230000011010005,RS2023,14.7565,RS2023,2023000001,PC,PT1H,1,HOUR 1,2001-01-02T10:22,5,PLASMA,2001-01-02T09:22,OPEN LABEL TREATMENT
20230000011010005,RS2023487A,5.9059,RS2023487A,2023000001,PC,PT1H,1,HOUR 1,2001-01-02T10:22,6,PLASMA,2001-01-02T09:22,OPEN LABEL TREATMENT
20230000011010005,RS2023,25.3233,RS2023,2023000001,PC,PT1.5H,1.5,HOUR 1.5,2001-01-02T10:52,7,PLASMA,2001-01-02T09:22,OPEN LABEL TREATMENT
20230000011010005,RS2023487A,16.1841,RS2023487A,2023000001,PC,PT1.5H,1.5,HOUR 1.5,2001-01-02T10:52,8,PLASMA,2001-01-02T09:22,OPEN LABEL TREATMENT
20230000011010005,RS2023,33.2829,RS2023,2023000001,PC,PT2H,2,HOUR 2,2001-01-02T11:22,9,PLASMA,2001-01-02T09:22,OPEN LABEL TREATMENT
20230000011010005,RS2023487A,30.5254,RS2023487A,2023000001,PC,PT2H,2,HOUR 2,2001-01-02T11:22,10,PLASMA,2001-01-02T09:22,OPEN LABEL TREATMENT
20230000011010005,RS2023,21.0628,RS2023,2023000001,PC,PT3H,3,HOUR 3,2001-01-02T12:22,11,PLASMA,2001-01-02T09:22,OPEN LABEL TREATMENT
20230000011010005,RS2023487A,56.3091,RS2023487A,2023000001,PC,PT3H,3,HOUR 3,2001-01-02T12:22,12,PLASMA,2001-01-02T09:22,OPEN LABEL TREATMENT
20230000011010005,RS2023,15.2541,RS2023,2023000001,PC,PT4H,4,HOUR 4,2001-01-02T13:22,13,PLASMA,2001-01-02T09:22,OPEN LABEL TREATMENT
20230000011010005,RS2023487A,69.5133,RS2023487A,2023000001,PC,PT4H,4,HOUR 4,2001-01-02T13:22,14,PLASMA,2001-01-02T09:22,OPEN LABEL TREATMENT
20230000011010005,RS2023,5.7085,RS2023,2023000001,PC,PT6H,6,HOUR 6,2001-01-02T15:22,15,PLASMA,2001-01-02T09:22,OPEN LABEL TREATMENT
20230000011010005,RS2023487A,67.6047,RS2023487A,2023000001,PC,PT6H,6,HOUR 6,2001-01-02T15:22,16,PLASMA,2001-01-02T09:22,OPEN LABEL TREATMENT
20230000011010005,RS2023,1.6689,RS2023,2023000001,PC,PT8H,8,HOUR 8,2001-01-02T17:22,17,PLASMA,2001-01-02T09:22,OPEN LABEL TREATMENT
20230000011010005,RS2023487A,52.3293,RS2023487A,2023000001,PC,PT8H,8,HOUR 8,2001-01-02T17:22,18,PLASMA,2001-01-02T09:22,OPEN LABEL TREATMENT
20230000011010005,RS2023,0.5444,RS2023,2023000001,PC,PT10H,10,HOUR 10,2001-01-02T19:22,19,PLASMA,2001-01-02T09:22,OPEN LABEL TREATMENT
20230000011010005,RS2023487A,37.4497,RS2023487A,2023000001,PC,PT10H,10,HOUR 10,2001-01-02T19:22,20,PLASMA,2001-01-02T09:22,OPEN LABEL TREATMENT
20230000011010005,RS2023,0.2009,RS2023,2023000001,PC,PT12H,12,HOUR 12,2001-01-02T21:22,21,PLASMA,2001-01-02T09:22,OPEN LABEL TREATMENT
20230000011010005,RS2023487A,26.0775,RS2023487A,2023000001,PC,PT12H,12,HOUR 12,2001-01-02T21:22,22,PLASMA,2001-01-02T09:22,OPEN LABEL TREATMENT
20230000011010005,RS2023,0.072,RS2023,2023000001,PC,PT24H,24,HOUR 24,2001-01-03T09:22,23,PLASMA,2001-01-02T09:22,OPEN LABEL TREATMENT
20230000011010005,RS2023487A,3.0019,RS2023487A,2023000001,PC,PT24H,24,HOUR 24,2001-01-03T09:22,24,PLASMA,2001-01-02T09:22,OPEN LABEL TREATMENT
20230000011010005,RS2023,0.038,RS2023,2023000001,PC,PT48H,48,HOUR 48,2001-01-04T09:22,25,PLASMA,2001-01-02T09:22,OPEN LABEL TREATMENT
20230000011010005,RS2023487A,0.259,RS2023487A,2023000001,PC,PT48H,48,HOUR 48,2001-01-04T09:22,26,PLASMA,2001-01-02T09:22,OPEN LABEL TREATMENT
20230000011010005,RS2023,0.018,RS2023,2023000001,PC,PT72H,72,HOUR 72,2001-01-05T09:22,27,PLASMA,2001-01-02T09:22,OPEN LABEL TREATMENT
20230000011010005,RS2023487A,0.1199,RS2023487A,2023000001,PC,PT72H,72,HOUR 72,2001-01-05T09:22,28,PLASMA,2001-01-02T09:22,OPEN LABEL TREATMENT
20230000011010005,RS2023,0.0116,RS2023,2023000001,PC,PT96H,96,HOUR 96,2001-01-06T09:22,29,PLASMA,2001-01-02T09:22,OPEN LABEL TREATMENT
20230000011010005,RS2023487A,0.0612,RS2023487A,2023000001,PC,PT96H,96,HOUR 96,2001-01-06T09:22,30,PLASMA,2001-01-02T09:22,OPEN LABEL TREATMENT
20230000011010005,RS2023,0.0025,RS2023,2023000001,PC,PT144H,144,HOUR 144,2001-01-08T09:22,31,PLASMA,2001-01-02T09:22,OPEN LABEL TREATMENT
20230000011010005,RS2023487A,0.016,RS2023487A,2023000001,PC,PT144H,144,HOUR 144,2001-01-08T09:22,32,PLASMA,2001-01-02T09:22,OPEN LABEL TREATMENT
20230000011010005,RS2023,0.0012,RS2023,2023000001,PC,PT168H,168,HOUR 168,2001-01-09T09:22,33,PLASMA,2001-01-02T09:22,OPEN LABEL TREATMENT
20230000011010005,RS2023487A,0.0082,RS2023487A,2023000001,PC,PT168H,168,HOUR 168,2001-01-09T09:22,34,PLASMA,2001-01-02T09:22,OPEN LABEL TREATMENT
20230000011010006,RS2023,0,RS2023,2023000001,PC,PT0H,0,PREDOSE,2001-01-03T12:24,1,PLASMA,2001-01-03T12:24,OPEN LABEL TREATMENT
20230000011010006,RS2023487A,0,RS2023487A,2023000001,PC,PT0H,0,PREDOSE,2001-01-03T12:24,2,PLASMA,2001-01-03T12:24,OPEN LABEL TREATMENT
20230000011010006,RS2023,4.3233,RS2023,2023000001,PC,PT0.5H,0.5,HOUR 0.5,2001-01-03T12:54,3,PLASMA,2001-01-03T12:24,OPEN LABEL TREATMENT
20230000011010006,RS2023487A,0.8754,RS2023487A,2023000001,PC,PT0.5H,0.5,HOUR 0.5,2001-01-03T12:54,4,PLASMA,2001-01-03T12:24,OPEN LABEL TREATMENT
20230000011010006,RS2023,13.0761,RS2023,2023000001,PC,PT1H,1,HOUR 1,2001-01-03T13:24,5,PLASMA,2001-01-03T12:24,OPEN LABEL TREATMENT
20230000011010006,RS2023487A,6.0789,RS2023487A,2023000001,PC,PT1H,1,HOUR 1,2001-01-03T13:24,6,PLASMA,2001-01-03T12:24,OPEN LABEL TREATMENT
20230000011010006,RS2023,25.9744,RS2023,2023000001,PC,PT1.5H,1.5,HOUR 1.5,2001-01-03T13:54,7,PLASMA,2001-01-03T12:24,OPEN LABEL TREATMENT
20230000011010006,RS2023487A,17.8521,RS2023487A,2023000001,PC,PT1.5H,1.5,HOUR 1.5,2001-01-03T13:54,8,PLASMA,2001-01-03T12:24,OPEN LABEL TREATMENT
20230000011010006,RS2023,35.1601,RS2023,2023000001,PC,PT2H,2,HOUR 2,2001-01-03T14:24,9,PLASMA,2001-01-03T12:24,OPEN LABEL TREATMENT
20230000011010006,RS2023487A,36.0683,RS2023487A,2023000001,PC,PT2H,2,HOUR 2,2001-01-03T14:24,10,PLASMA,2001-01-03T12:24,OPEN LABEL TREATMENT
20230000011010006,RS2023,40.8302,RS2023,2023000001,PC,PT3H,3,HOUR 3,2001-01-03T15:24,11,PLASMA,2001-01-03T12:24,OPEN LABEL TREATMENT
20230000011010006,RS2023487A,77.8243,RS2023487A,2023000001,PC,PT3H,3,HOUR 3,2001-01-03T15:24,12,PLASMA,2001-01-03T12:24,OPEN LABEL TREATMENT
20230000011010006,RS2023,37.1669,RS2023,2023000001,PC,PT4H,4,HOUR 4,2001-01-03T16:24,13,PLASMA,2001-01-03T12:24,OPEN LABEL TREATMENT
20230000011010006,RS2023487A,112.4727,RS2023487A,2023000001,PC,PT4H,4,HOUR 4,2001-01-03T16:24,14,PLASMA,2001-01-03T12:24,OPEN LABEL TREATMENT
20230000011010006,RS2023,20.2856,RS2023,2023000001,PC,PT6H,6,HOUR 6,2001-01-03T18:24,15,PLASMA,2001-01-03T12:24,OPEN LABEL TREATMENT
20230000011010006,RS2023487A,144.5981,RS2023487A,2023000001,PC,PT6H,6,HOUR 6,2001-01-03T18:24,16,PLASMA,2001-01-03T12:24,OPEN LABEL TREATMENT
20230000011010006,RS2023,12.5922,RS2023,2023000001,PC,PT8H,8,HOUR 8,2001-01-03T20:24,17,PLASMA,2001-01-03T12:24,OPEN LABEL TREATMENT
20230000011010006,RS2023487A,139.7032,RS2023487A,2023000001,PC,PT8H,8,HOUR 8,2001-01-03T20:24,18,PLASMA,2001-01-03T12:24,OPEN LABEL TREATMENT
20230000011010006,RS2023,6.6406,RS2023,2023000001,PC,PT10H,10,HOUR 10,2001-01-03T22:24,19,PLASMA,2001-01-03T12:24,OPEN LABEL TREATMENT
20230000011010006,RS2023487A,118.5774,RS2023487A,2023000001,PC,PT10H,10,HOUR 10,2001-01-03T22:24,20,PLASMA,2001-01-03T12:24,OPEN LABEL TREATMENT
20230000011010006,RS2023,3.7069,RS2023,2023000001,PC,PT12H,12,HOUR 12,2001-01-04T00:24,21,PLASMA,2001-01-03T12:24,OPEN LABEL TREATMENT
20230000011010006,RS2023487A,94.1915,RS2023487A,2023000001,PC,PT12H,12,HOUR 12,2001-01-04T00:24,22,PLASMA,2001-01-03T12:24,OPEN LABEL TREATMENT
20230000011010006,RS2023,0.5299,RS2023,2023000001,PC,PT24H,24,HOUR 24,2001-01-04T12:24,23,PLASMA,2001-01-03T12:24,OPEN LABEL TREATMENT
20230000011010006,RS2023487A,17.8274,RS2023487A,2023000001,PC,PT24H,24,HOUR 24,2001-01-04T12:24,24,PLASMA,2001-01-03T12:24,OPEN LABEL TREATMENT
20230000011010006,RS2023,0.2134,RS2023,2023000001,PC,PT48H,48,HOUR 48,2001-01-05T12:24,25,PLASMA,2001-01-03T12:24,OPEN LABEL TREATMENT
20230000011010006,RS2023487A,2.3429,RS2023487A,2023000001,PC,PT48H,48,HOUR 48,2001-01-05T12:24,26,PLASMA,2001-01-03T12:24,OPEN LABEL TREATMENT
20230000011010006,RS2023,0.068,RS2023,2023000001,PC,PT72H,72,HOUR 72,2001-01-06T12:24,27,PLASMA,2001-01-03T12:24,OPEN LABEL TREATMENT
20230000011010006,RS2023487A,0.8189,RS2023487A,2023000001,PC,PT72H,72,HOUR 72,2001-01-06T12:24,28,PLASMA,2001-01-03T12:24,OPEN LABEL TREATMENT
20230000011010006,RS2023,0.0365,RS2023,2023000001,PC,PT96H,96,HOUR 96,2001-01-07T12:24,29,PLASMA,2001-01-03T12:24,OPEN LABEL TREATMENT
20230000011010006,RS2023487A,0.3086,RS2023487A,2023000001,PC,PT96H,96,HOUR 96,2001-01-07T12:24,30,PLASMA,2001-01-03T12:24,OPEN LABEL TREATMENT
20230000011010006,RS2023,0.005,RS2023,2023000001,PC,PT144H,144,HOUR 144,2001-01-09T12:24,31,PLASMA,2001-01-03T12:24,OPEN LABEL TREATMENT
20230000011010006,RS2023487A,0.0441,RS2023487A,2023000001,PC,PT144H,144,HOUR 144,2001-01-09T12:24,32,PLASMA,2001-01-03T12:24,OPEN LABEL TREATMENT
20230000011010006,RS2023,0.0012,RS2023,2023000001,PC,PT168H,168,HOUR 168,2001-01-10T12:24,33,PLASMA,2001-01-03T12:24,OPEN LABEL TREATMENT
20230000011010006,RS2023487A,0.0167,RS2023487A,2023000001,PC,PT168H,168,HOUR 168,2001-01-10T12:24,34,PLASMA,2001-01-03T12:24,OPEN LABEL TREATMENT
20230000011010007,RS2023,0,RS2023,2023000001,PC,PT0H,0,PREDOSE,2001-01-02T10:00,1,PLASMA,2001-01-02T10:00,OPEN LABEL TREATMENT
20230000011010007,RS2023487A,0,RS2023487A,2023000001,PC,PT0H,0,PREDOSE,2001-01-02T10:00,2,PLASMA,2001-01-02T10:00,OPEN LABEL TREATMENT
20230000011010007,RS2023,1.7231,RS2023,2023000001,PC,PT0.5H,0.5,HOUR 0.5,2001-01-02T10:30,3,PLASMA,2001-01-02T10:00,OPEN LABEL TREATMENT
20230000011010007,RS2023487A,0.4213,RS2023487A,2023000001,PC,PT0.5H,0.5,HOUR 0.5,2001-01-02T10:30,4,PLASMA,2001-01-02T10:00,OPEN LABEL TREATMENT
20230000011010007,RS2023,5.842,RS2023,2023000001,PC,PT1H,1,HOUR 1,2001-01-02T11:00,5,PLASMA,2001-01-02T10:00,OPEN LABEL TREATMENT
20230000011010007,RS2023487A,2.884,RS2023487A,2023000001,PC,PT1H,1,HOUR 1,2001-01-02T11:00,6,PLASMA,2001-01-02T10:00,OPEN LABEL TREATMENT
20230000011010007,RS2023,9.6467,RS2023,2023000001,PC,PT1.5H,1.5,HOUR 1.5,2001-01-02T11:30,7,PLASMA,2001-01-02T10:00,OPEN LABEL TREATMENT
20230000011010007,RS2023487A,8.3682,RS2023487A,2023000001,PC,PT1.5H,1.5,HOUR 1.5,2001-01-02T11:30,8,PLASMA,2001-01-02T10:00,OPEN LABEL TREATMENT
20230000011010007,RS2023,14.1114,RS2023,2023000001,PC,PT2H,2,HOUR 2,2001-01-02T12:00,9,PLASMA,2001-01-02T10:00,OPEN LABEL TREATMENT
20230000011010007,RS2023487A,17.1313,RS2023487A,2023000001,PC,PT2H,2,HOUR 2,2001-01-02T12:00,10,PLASMA,2001-01-02T10:00,OPEN LABEL TREATMENT
20230000011010007,RS2023,23.1291,RS2023,2023000001,PC,PT3H,3,HOUR 3,2001-01-02T13:00,11,PLASMA,2001-01-02T10:00,OPEN LABEL TREATMENT
20230000011010007,RS2023487A,42.9911,RS2023487A,2023000001,PC,PT3H,3,HOUR 3,2001-01-02T13:00,12,PLASMA,2001-01-02T10:00,OPEN LABEL TREATMENT
20230000011010007,RS2023,20.4576,RS2023,2023000001,PC,PT4H,4,HOUR 4,2001-01-02T14:00,13,PLASMA,2001-01-02T10:00,OPEN LABEL TREATMENT
20230000011010007,RS2023487A,69.7036,RS2023487A,2023000001,PC,PT4H,4,HOUR 4,2001-01-02T14:00,14,PLASMA,2001-01-02T10:00,OPEN LABEL TREATMENT
20230000011010007,RS2023,12.046,RS2023,2023000001,PC,PT6H,6,HOUR 6,2001-01-02T16:00,15,PLASMA,2001-01-02T10:00,OPEN LABEL TREATMENT
20230000011010007,RS2023487A,101.0708,RS2023487A,2023000001,PC,PT6H,6,HOUR 6,2001-01-02T16:00,16,PLASMA,2001-01-02T10:00,OPEN LABEL TREATMENT
20230000011010007,RS2023,6.2922,RS2023,2023000001,PC,PT8H,8,HOUR 8,2001-01-02T18:00,17,PLASMA,2001-01-02T10:00,OPEN LABEL TREATMENT
20230000011010007,RS2023487A,106.3973,RS2023487A,2023000001,PC,PT8H,8,HOUR 8,2001-01-02T18:00,18,PLASMA,2001-01-02T10:00,OPEN LABEL TREATMENT
20230000011010007,RS2023,3.3146,RS2023,2023000001,PC,PT10H,10,HOUR 10,2001-01-02T20:00,19,PLASMA,2001-01-02T10:00,OPEN LABEL TREATMENT
20230000011010007,RS2023487A,98.4491,RS2023487A,2023000001,PC,PT10H,10,HOUR 10,2001-01-02T20:00,20,PLASMA,2001-01-02T10:00,OPEN LABEL TREATMENT
20230000011010007,RS2023,1.7633,RS2023,2023000001,PC,PT12H,12,HOUR 12,2001-01-02T22:00,21,PLASMA,2001-01-02T10:00,OPEN LABEL TREATMENT
20230000011010007,RS2023487A,85.7406,RS2023487A,2023000001,PC,PT12H,12,HOUR 12,2001-01-02T22:00,22,PLASMA,2001-01-02T10:00,OPEN LABEL TREATMENT
20230000011010007,RS2023,0.2742,RS2023,2023000001,PC,PT24H,24,HOUR 24,2001-01-03T10:00,23,PLASMA,2001-01-02T10:00,OPEN LABEL TREATMENT
20230000011010007,RS2023487A,27.4802,RS2023487A,2023000001,PC,PT24H,24,HOUR 24,2001-01-03T10:00,24,PLASMA,2001-01-02T10:00,OPEN LABEL TREATMENT
20230000011010007,RS2023,0.0549,RS2023,2023000001,PC,PT48H,48,HOUR 48,2001-01-04T10:00,25,PLASMA,2001-01-02T10:00,OPEN LABEL TREATMENT
20230000011010007,RS2023487A,3.0128,RS2023487A,2023000001,PC,PT48H,48,HOUR 48,2001-01-04T10:00,26,PLASMA,2001-01-02T10:00,OPEN LABEL TREATMENT
20230000011010007,RS2023,0.0132,RS2023,2023000001,PC,PT72H,72,HOUR 72,2001-01-05T10:00,27,PLASMA,2001-01-02T10:00,OPEN LABEL TREATMENT
20230000011010007,RS2023487A,0.4897,RS2023487A,2023000001,PC,PT72H,72,HOUR 72,2001-01-05T10:00,28,PLASMA,2001-01-02T10:00,OPEN LABEL TREATMENT
20230000011010007,RS2023,0.0036,RS2023,2023000001,PC,PT96H,96,HOUR 96,2001-01-06T10:00,29,PLASMA,2001-01-02T10:00,OPEN LABEL TREATMENT
20230000011010007,RS2023487A,0.1056,RS2023487A,2023000001,PC,PT96H,96,HOUR 96,2001-01-06T10:00,30,PLASMA,2001-01-02T10:00,OPEN LABEL TREATMENT
20230000011010007,RS2023,2e-4,RS2023,2023000001,PC,PT144H,144,HOUR 144,2001-01-08T10:00,31,PLASMA,2001-01-02T10:00,OPEN LABEL TREATMENT
20230000011010007,RS2023487A,0.0064,RS2023487A,2023000001,PC,PT144H,144,HOUR 144,2001-01-08T10:00,32,PLASMA,2001-01-02T10:00,OPEN LABEL TREATMENT
20230000011010007,RS2023,1e-4,RS2023,2023000001,PC,PT168H,168,HOUR 168,2001-01-09T10:00,33,PLASMA,2001-01-02T10:00,OPEN LABEL TREATMENT
20230000011010007,RS2023487A,0.0016,RS2023487A,2023000001,PC,PT168H,168,HOUR 168,2001-01-09T10:00,34,PLASMA,2001-01-02T10:00,OPEN LABEL TREATMENT
20230000011010008,RS2023,0,RS2023,2023000001,PC,PT0H,0,PREDOSE,2001-01-01T10:34,1,PLASMA,2001-01-01T10:34,OPEN LABEL TREATMENT
20230000011010008,RS2023487A,0,RS2023487A,2023000001,PC,PT0H,0,PREDOSE,2001-01-01T10:34,2,PLASMA,2001-01-01T10:34,OPEN LABEL TREATMENT
20230000011010008,RS2023,9.9053,RS2023,2023000001,PC,PT0.5H,0.5,HOUR 0.5,2001-01-01T11:04,3,PLASMA,2001-01-01T10:34,OPEN LABEL TREATMENT
20230000011010008,RS2023487A,4.6543,RS2023487A,2023000001,PC,PT0.5H,0.5,HOUR 0.5,2001-01-01T11:04,4,PLASMA,2001-01-01T10:34,OPEN LABEL TREATMENT
20230000011010008,RS2023,41.0925,RS2023,2023000001,PC,PT1H,1,HOUR 1,2001-01-01T11:34,5,PLASMA,2001-01-01T10:34,OPEN LABEL TREATMENT
20230000011010008,RS2023487A,28.4776,RS2023487A,2023000001,PC,PT1H,1,HOUR 1,2001-01-01T11:34,6,PLASMA,2001-01-01T10:34,OPEN LABEL TREATMENT
20230000011010008,RS2023,56.0299,RS2023,2023000001,PC,PT1.5H,1.5,HOUR 1.5,2001-01-01T12:04,7,PLASMA,2001-01-01T10:34,OPEN LABEL TREATMENT
20230000011010008,RS2023487A,74.2039,RS2023487A,2023000001,PC,PT1.5H,1.5,HOUR 1.5,2001-01-01T12:04,8,PLASMA,2001-01-01T10:34,OPEN LABEL TREATMENT
20230000011010008,RS2023,74.5205,RS2023,2023000001,PC,PT2H,2,HOUR 2,2001-01-01T12:34,9,PLASMA,2001-01-01T10:34,OPEN LABEL TREATMENT
20230000011010008,RS2023487A,136.1934,RS2023487A,2023000001,PC,PT2H,2,HOUR 2,2001-01-01T12:34,10,PLASMA,2001-01-01T10:34,OPEN LABEL TREATMENT
20230000011010008,RS2023,79.4629,RS2023,2023000001,PC,PT3H,3,HOUR 3,2001-01-01T13:34,11,PLASMA,2001-01-01T10:34,OPEN LABEL TREATMENT
20230000011010008,RS2023487A,237.5164,RS2023487A,2023000001,PC,PT3H,3,HOUR 3,2001-01-01T13:34,12,PLASMA,2001-01-01T10:34,OPEN LABEL TREATMENT
20230000011010008,RS2023,39.485,RS2023,2023000001,PC,PT4H,4,HOUR 4,2001-01-01T14:34,13,PLASMA,2001-01-01T10:34,OPEN LABEL TREATMENT
20230000011010008,RS2023487A,265.21,RS2023487A,2023000001,PC,PT4H,4,HOUR 4,2001-01-01T14:34,14,PLASMA,2001-01-01T10:34,OPEN LABEL TREATMENT
20230000011010008,RS2023,11.2828,RS2023,2023000001,PC,PT6H,6,HOUR 6,2001-01-01T16:34,15,PLASMA,2001-01-01T10:34,OPEN LABEL TREATMENT
20230000011010008,RS2023487A,202.3717,RS2023487A,2023000001,PC,PT6H,6,HOUR 6,2001-01-01T16:34,16,PLASMA,2001-01-01T10:34,OPEN LABEL TREATMENT
20230000011010008,RS2023,3.7931,RS2023,2023000001,PC,PT8H,8,HOUR 8,2001-01-01T18:34,17,PLASMA,2001-01-01T10:34,OPEN LABEL TREATMENT
20230000011010008,RS2023487A,120.8629,RS2023487A,2023000001,PC,PT8H,8,HOUR 8,2001-01-01T18:34,18,PLASMA,2001-01-01T10:34,OPEN LABEL TREATMENT
20230000011010008,RS2023,1.354,RS2023,2023000001,PC,PT10H,10,HOUR 10,2001-01-01T20:34,19,PLASMA,2001-01-01T10:34,OPEN LABEL TREATMENT
20230000011010008,RS2023487A,66.7114,RS2023487A,2023000001,PC,PT10H,10,HOUR 10,2001-01-01T20:34,20,PLASMA,2001-01-01T10:34,OPEN LABEL TREATMENT
20230000011010008,RS2023,0.9441,RS2023,2023000001,PC,PT12H,12,HOUR 12,2001-01-01T22:34,21,PLASMA,2001-01-01T10:34,OPEN LABEL TREATMENT
20230000011010008,RS2023487A,36.3554,RS2023487A,2023000001,PC,PT12H,12,HOUR 12,2001-01-01T22:34,22,PLASMA,2001-01-01T10:34,OPEN LABEL TREATMENT
20230000011010008,RS2023,0.372,RS2023,2023000001,PC,PT24H,24,HOUR 24,2001-01-02T10:34,23,PLASMA,2001-01-01T10:34,OPEN LABEL TREATMENT
20230000011010008,RS2023487A,3.3121,RS2023487A,2023000001,PC,PT24H,24,HOUR 24,2001-01-02T10:34,24,PLASMA,2001-01-01T10:34,OPEN LABEL TREATMENT
20230000011010008,RS2023,0.1185,RS2023,2023000001,PC,PT48H,48,HOUR 48,2001-01-03T10:34,25,PLASMA,2001-01-01T10:34,OPEN LABEL TREATMENT
20230000011010008,RS2023487A,0.8921,RS2023487A,2023000001,PC,PT48H,48,HOUR 48,2001-01-03T10:34,26,PLASMA,2001-01-01T10:34,OPEN LABEL TREATMENT
20230000011010008,RS2023,0.0413,RS2023,2023000001,PC,PT72H,72,HOUR 72,2001-01-04T10:34,27,PLASMA,2001-01-01T10:34,OPEN LABEL TREATMENT
20230000011010008,RS2023487A,0.2804,RS2023487A,2023000001,PC,PT72H,72,HOUR 72,2001-01-04T10:34,28,PLASMA,2001-01-01T10:34,OPEN LABEL TREATMENT
20230000011010008,RS2023,0.0117,RS2023,2023000001,PC,PT96H,96,HOUR 96,2001-01-05T10:34,29,PLASMA,2001-01-01T10:34,OPEN LABEL TREATMENT
20230000011010008,RS2023487A,0.0882,RS2023487A,2023000001,PC,PT96H,96,HOUR 96,2001-01-05T10:34,30,PLASMA,2001-01-01T10:34,OPEN LABEL TREATMENT
20230000011010008,RS2023,0.0011,RS2023,2023000001,PC,PT144H,144,HOUR 144,2001-01-07T10:34,31,PLASMA,2001-01-01T10:34,OPEN LABEL TREATMENT
20230000011010008,RS2023487A,0.0087,RS2023487A,2023000001,PC,PT144H,144,HOUR 144,2001-01-07T10:34,32,PLASMA,2001-01-01T10:34,OPEN LABEL TREATMENT
20230000011010008,RS2023,4e-4,RS2023,2023000001,PC,PT168H,168,HOUR 168,2001-01-08T10:34,33,PLASMA,2001-01-01T10:34,OPEN LABEL TREATMENT
20230000011010008,RS2023487A,0.0027,RS2023487A,2023000001,PC,PT168H,168,HOUR 168,2001-01-08T10:34,34,PLASMA,2001-01-01T10:34,OPEN LABEL TREATMENT
20230000011010010,RS2023,0,RS2023,2023000001,PC,PT0H,0,PREDOSE,2001-01-03T09:29,1,PLASMA,2001-01-03T09:29,OPEN LABEL TREATMENT
20230000011010010,RS2023487A,0,RS2023487A,2023000001,PC,PT0H,0,PREDOSE,2001-01-03T09:29,2,PLASMA,2001-01-03T09:29,OPEN LABEL TREATMENT
20230000011010010,RS2023,8.5307,RS2023,2023000001,PC,PT0.5H,0.5,HOUR 0.5,2001-01-03T09:59,3,PLASMA,2001-01-03T09:29,OPEN LABEL TREATMENT
20230000011010010,RS2023487A,3.4309,RS2023487A,2023000001,PC,PT0.5H,0.5,HOUR 0.5,2001-01-03T09:59,4,PLASMA,2001-01-03T09:29,OPEN LABEL TREATMENT
20230000011010010,RS2023,30.2701,RS2023,2023000001,PC,PT1H,1,HOUR 1,2001-01-03T10:29,5,PLASMA,2001-01-03T09:29,OPEN LABEL TREATMENT
20230000011010010,RS2023487A,23.4648,RS2023487A,2023000001,PC,PT1H,1,HOUR 1,2001-01-03T10:29,6,PLASMA,2001-01-03T09:29,OPEN LABEL TREATMENT
20230000011010010,RS2023,48.1672,RS2023,2023000001,PC,PT1.5H,1.5,HOUR 1.5,2001-01-03T10:59,7,PLASMA,2001-01-03T09:29,OPEN LABEL TREATMENT
20230000011010010,RS2023487A,67.7642,RS2023487A,2023000001,PC,PT1.5H,1.5,HOUR 1.5,2001-01-03T10:59,8,PLASMA,2001-01-03T09:29,OPEN LABEL TREATMENT
20230000011010010,RS2023,77.7009,RS2023,2023000001,PC,PT2H,2,HOUR 2,2001-01-03T11:29,9,PLASMA,2001-01-03T09:29,OPEN LABEL TREATMENT
20230000011010010,RS2023487A,130.8492,RS2023487A,2023000001,PC,PT2H,2,HOUR 2,2001-01-03T11:29,10,PLASMA,2001-01-03T09:29,OPEN LABEL TREATMENT
20230000011010010,RS2023,78.4449,RS2023,2023000001,PC,PT3H,3,HOUR 3,2001-01-03T12:29,11,PLASMA,2001-01-03T09:29,OPEN LABEL TREATMENT
20230000011010010,RS2023487A,260.266,RS2023487A,2023000001,PC,PT3H,3,HOUR 3,2001-01-03T12:29,12,PLASMA,2001-01-03T09:29,OPEN LABEL TREATMENT
20230000011010010,RS2023,55.2213,RS2023,2023000001,PC,PT4H,4,HOUR 4,2001-01-03T13:29,13,PLASMA,2001-01-03T09:29,OPEN LABEL TREATMENT
20230000011010010,RS2023487A,353.4981,RS2023487A,2023000001,PC,PT4H,4,HOUR 4,2001-01-03T13:29,14,PLASMA,2001-01-03T09:29,OPEN LABEL TREATMENT
20230000011010010,RS2023,32.5751,RS2023,2023000001,PC,PT6H,6,HOUR 6,2001-01-03T15:29,15,PLASMA,2001-01-03T09:29,OPEN LABEL TREATMENT
20230000011010010,RS2023487A,409.609,RS2023487A,2023000001,PC,PT6H,6,HOUR 6,2001-01-03T15:29,16,PLASMA,2001-01-03T09:29,OPEN LABEL TREATMENT
20230000011010010,RS2023,16.7877,RS2023,2023000001,PC,PT8H,8,HOUR 8,2001-01-03T17:29,17,PLASMA,2001-01-03T09:29,OPEN LABEL TREATMENT
20230000011010010,RS2023487A,359.9641,RS2023487A,2023000001,PC,PT8H,8,HOUR 8,2001-01-03T17:29,18,PLASMA,2001-01-03T09:29,OPEN LABEL TREATMENT
20230000011010010,RS2023,6.3694,RS2023,2023000001,PC,PT10H,10,HOUR 10,2001-01-03T19:29,19,PLASMA,2001-01-03T09:29,OPEN LABEL TREATMENT
20230000011010010,RS2023487A,278.7884,RS2023487A,2023000001,PC,PT10H,10,HOUR 10,2001-01-03T19:29,20,PLASMA,2001-01-03T09:29,OPEN LABEL TREATMENT
20230000011010010,RS2023,3.0042,RS2023,2023000001,PC,PT12H,12,HOUR 12,2001-01-03T21:29,21,PLASMA,2001-01-03T09:29,OPEN LABEL TREATMENT
20230000011010010,RS2023487A,202.3404,RS2023487A,2023000001,PC,PT12H,12,HOUR 12,2001-01-03T21:29,22,PLASMA,2001-01-03T09:29,OPEN LABEL TREATMENT
20230000011010010,RS2023,0.4298,RS2023,2023000001,PC,PT24H,24,HOUR 24,2001-01-04T09:29,23,PLASMA,2001-01-03T09:29,OPEN LABEL TREATMENT
20230000011010010,RS2023487A,22.8211,RS2023487A,2023000001,PC,PT24H,24,HOUR 24,2001-01-04T09:29,24,PLASMA,2001-01-03T09:29,OPEN LABEL TREATMENT
20230000011010010,RS2023,0.2011,RS2023,2023000001,PC,PT48H,48,HOUR 48,2001-01-05T09:29,25,PLASMA,2001-01-03T09:29,OPEN LABEL TREATMENT
20230000011010010,RS2023487A,2.658,RS2023487A,2023000001,PC,PT48H,48,HOUR 48,2001-01-05T09:29,26,PLASMA,2001-01-03T09:29,OPEN LABEL TREATMENT
20230000011010010,RS2023,0.0834,RS2023,2023000001,PC,PT72H,72,HOUR 72,2001-01-06T09:29,27,PLASMA,2001-01-03T09:29,OPEN LABEL TREATMENT
20230000011010010,RS2023487A,1.2445,RS2023487A,2023000001,PC,PT72H,72,HOUR 72,2001-01-06T09:29,28,PLASMA,2001-01-03T09:29,OPEN LABEL TREATMENT
20230000011010010,RS2023,0.0452,RS2023,2023000001,PC,PT96H,96,HOUR 96,2001-01-07T09:29,29,PLASMA,2001-01-03T09:29,OPEN LABEL TREATMENT
20230000011010010,RS2023487A,0.6079,RS2023487A,2023000001,PC,PT96H,96,HOUR 96,2001-01-07T09:29,30,PLASMA,2001-01-03T09:29,OPEN LABEL TREATMENT
20230000011010010,RS2023,0.0091,RS2023,2023000001,PC,PT144H,144,HOUR 144,2001-01-09T09:29,31,PLASMA,2001-01-03T09:29,OPEN LABEL TREATMENT
20230000011010010,RS2023487A,0.1452,RS2023487A,2023000001,PC,PT144H,144,HOUR 144,2001-01-09T09:29,32,PLASMA,2001-01-03T09:29,OPEN LABEL TREATMENT
20230000011010010,RS2023,0.0044,RS2023,2023000001,PC,PT168H,168,HOUR 168,2001-01-10T09:29,33,PLASMA,2001-01-03T09:29,OPEN LABEL TREATMENT
20230000011010010,RS2023487A,0.071,RS2023487A,2023000001,PC,PT168H,168,HOUR 168,2001-01-10T09:29,34,PLASMA,2001-01-03T09:29,OPEN LABEL TREATMENT
20230000011010012,RS2023,0,RS2023,2023000001,PC,PT0H,0,PREDOSE,2001-01-07T11:26,1,PLASMA,2001-01-07T11:26,OPEN LABEL TREATMENT
20230000011010012,RS2023487A,0,RS2023487A,2023000001,PC,PT0H,0,PREDOSE,2001-01-07T11:26,2,PLASMA,2001-01-07T11:26,OPEN LABEL TREATMENT
20230000011010012,RS2023,7.9479,RS2023,2023000001,PC,PT0.5H,0.5,HOUR 0.5,2001-01-07T11:56,3,PLASMA,2001-01-07T11:26,OPEN LABEL TREATMENT
20230000011010012,RS2023487A,3.1636,RS2023487A,2023000001,PC,PT0.5H,0.5,HOUR 0.5,2001-01-07T11:56,4,PLASMA,2001-01-07T11:26,OPEN LABEL TREATMENT
20230000011010012,RS2023,23.2553,RS2023,2023000001,PC,PT1H,1,HOUR 1,2001-01-07T12:26,5,PLASMA,2001-01-07T11:26,OPEN LABEL TREATMENT
20230000011010012,RS2023487A,18.498,RS2023487A,2023000001,PC,PT1H,1,HOUR 1,2001-01-07T12:26,6,PLASMA,2001-01-07T11:26,OPEN LABEL TREATMENT
20230000011010012,RS2023,48.584,RS2023,2023000001,PC,PT1.5H,1.5,HOUR 1.5,2001-01-07T12:56,7,PLASMA,2001-01-07T11:26,OPEN LABEL TREATMENT
20230000011010012,RS2023487A,46.3762,RS2023487A,2023000001,PC,PT1.5H,1.5,HOUR 1.5,2001-01-07T12:56,8,PLASMA,2001-01-07T11:26,OPEN LABEL TREATMENT
20230000011010012,RS2023,58.387,RS2023,2023000001,PC,PT2H,2,HOUR 2,2001-01-07T13:26,9,PLASMA,2001-01-07T11:26,OPEN LABEL TREATMENT
20230000011010012,RS2023487A,82.9469,RS2023487A,2023000001,PC,PT2H,2,HOUR 2,2001-01-07T13:26,10,PLASMA,2001-01-07T11:26,OPEN LABEL TREATMENT
20230000011010012,RS2023,58.2113,RS2023,2023000001,PC,PT3H,3,HOUR 3,2001-01-07T14:26,11,PLASMA,2001-01-07T11:26,OPEN LABEL TREATMENT
20230000011010012,RS2023487A,161.8692,RS2023487A,2023000001,PC,PT3H,3,HOUR 3,2001-01-07T14:26,12,PLASMA,2001-01-07T11:26,OPEN LABEL TREATMENT
20230000011010012,RS2023,27.1117,RS2023,2023000001,PC,PT4H,4,HOUR 4,2001-01-07T15:26,13,PLASMA,2001-01-07T11:26,OPEN LABEL TREATMENT
20230000011010012,RS2023487A,196.0282,RS2023487A,2023000001,PC,PT4H,4,HOUR 4,2001-01-07T15:26,14,PLASMA,2001-01-07T11:26,OPEN LABEL TREATMENT
20230000011010012,RS2023,6.4858,RS2023,2023000001,PC,PT6H,6,HOUR 6,2001-01-07T17:26,15,PLASMA,2001-01-07T11:26,OPEN LABEL TREATMENT
20230000011010012,RS2023487A,161.7231,RS2023487A,2023000001,PC,PT6H,6,HOUR 6,2001-01-07T17:26,16,PLASMA,2001-01-07T11:26,OPEN LABEL TREATMENT
20230000011010012,RS2023,1.2781,RS2023,2023000001,PC,PT8H,8,HOUR 8,2001-01-07T19:26,17,PLASMA,2001-01-07T11:26,OPEN LABEL TREATMENT
20230000011010012,RS2023487A,107.6827,RS2023487A,2023000001,PC,PT8H,8,HOUR 8,2001-01-07T19:26,18,PLASMA,2001-01-07T11:26,OPEN LABEL TREATMENT
20230000011010012,RS2023,0.494,RS2023,2023000001,PC,PT10H,10,HOUR 10,2001-01-07T21:26,19,PLASMA,2001-01-07T11:26,OPEN LABEL TREATMENT
20230000011010012,RS2023487A,68.8758,RS2023487A,2023000001,PC,PT10H,10,HOUR 10,2001-01-07T21:26,20,PLASMA,2001-01-07T11:26,OPEN LABEL TREATMENT
20230000011010012,RS2023,0.4677,RS2023,2023000001,PC,PT12H,12,HOUR 12,2001-01-07T23:26,21,PLASMA,2001-01-07T11:26,OPEN LABEL TREATMENT
20230000011010012,RS2023487A,43.9888,RS2023487A,2023000001,PC,PT12H,12,HOUR 12,2001-01-07T23:26,22,PLASMA,2001-01-07T11:26,OPEN LABEL TREATMENT
20230000011010012,RS2023,0.1969,RS2023,2023000001,PC,PT24H,24,HOUR 24,2001-01-08T11:26,23,PLASMA,2001-01-07T11:26,OPEN LABEL TREATMENT
20230000011010012,RS2023487A,4.2932,RS2023487A,2023000001,PC,PT24H,24,HOUR 24,2001-01-08T11:26,24,PLASMA,2001-01-07T11:26,OPEN LABEL TREATMENT
20230000011010012,RS2023,0.0677,RS2023,2023000001,PC,PT48H,48,HOUR 48,2001-01-09T11:26,25,PLASMA,2001-01-07T11:26,OPEN LABEL TREATMENT
20230000011010012,RS2023487A,0.5437,RS2023487A,2023000001,PC,PT48H,48,HOUR 48,2001-01-09T11:26,26,PLASMA,2001-01-07T11:26,OPEN LABEL TREATMENT
20230000011010012,RS2023,0.0149,RS2023,2023000001,PC,PT72H,72,HOUR 72,2001-01-10T11:26,27,PLASMA,2001-01-07T11:26,OPEN LABEL TREATMENT
20230000011010012,RS2023487A,0.142,RS2023487A,2023000001,PC,PT72H,72,HOUR 72,2001-01-10T11:26,28,PLASMA,2001-01-07T11:26,OPEN LABEL TREATMENT
20230000011010012,RS2023,0.0035,RS2023,2023000001,PC,PT96H,96,HOUR 96,2001-01-11T11:26,29,PLASMA,2001-01-07T11:26,OPEN LABEL TREATMENT
20230000011010012,RS2023487A,0.0376,RS2023487A,2023000001,PC,PT96H,96,HOUR 96,2001-01-11T11:26,30,PLASMA,2001-01-07T11:26,OPEN LABEL TREATMENT
20230000011010012,RS2023,3e-4,RS2023,2023000001,PC,PT144H,144,HOUR 144,2001-01-13T11:26,31,PLASMA,2001-01-07T11:26,OPEN LABEL TREATMENT
20230000011010012,RS2023487A,0.0026,RS2023487A,2023000001,PC,PT144H,144,HOUR 144,2001-01-13T11:26,32,PLASMA,2001-01-07T11:26,OPEN LABEL TREATMENT
20230000011010012,RS2023,1e-4,RS2023,2023000001,PC,PT168H,168,HOUR 168,2001-01-14T11:26,33,PLASMA,2001-01-07T11:26,OPEN LABEL TREATMENT
20230000011010012,RS2023487A,7e-4,RS2023487A,2023000001,PC,PT168H,168,HOUR 168,2001-01-14T11:26,34,PLASMA,2001-01-07T11:26,OPEN LABEL TREATMENT
20230000011010013,RS2023,0,RS2023,2023000001,PC,PT0H,0,PREDOSE,2001-01-13T09:30,1,PLASMA,2001-01-13T09:30,OPEN LABEL TREATMENT
20230000011010013,RS2023487A,0,RS2023487A,2023000001,PC,PT0H,0,PREDOSE,2001-01-13T09:30,2,PLASMA,2001-01-13T09:30,OPEN LABEL TREATMENT
20230000011010013,RS2023,26.1853,RS2023,2023000001,PC,PT0.5H,0.5,HOUR 0.5,2001-01-13T10:00,3,PLASMA,2001-01-13T09:30,OPEN LABEL TREATMENT
20230000011010013,RS2023487A,7.2476,RS2023487A,2023000001,PC,PT0.5H,0.5,HOUR 0.5,2001-01-13T10:00,4,PLASMA,2001-01-13T09:30,OPEN LABEL TREATMENT
20230000011010013,RS2023,82.3512,RS2023,2023000001,PC,PT1H,1,HOUR 1,2001-01-13T10:30,5,PLASMA,2001-01-13T09:30,OPEN LABEL TREATMENT
20230000011010013,RS2023487A,47.1836,RS2023487A,2023000001,PC,PT1H,1,HOUR 1,2001-01-13T10:30,6,PLASMA,2001-01-13T09:30,OPEN LABEL TREATMENT
20230000011010013,RS2023,150.3713,RS2023,2023000001,PC,PT1.5H,1.5,HOUR 1.5,2001-01-13T11:00,7,PLASMA,2001-01-13T09:30,OPEN LABEL TREATMENT
20230000011010013,RS2023487A,130.744,RS2023487A,2023000001,PC,PT1.5H,1.5,HOUR 1.5,2001-01-13T11:00,8,PLASMA,2001-01-13T09:30,OPEN LABEL TREATMENT
20230000011010013,RS2023,210.7302,RS2023,2023000001,PC,PT2H,2,HOUR 2,2001-01-13T11:30,9,PLASMA,2001-01-13T09:30,OPEN LABEL TREATMENT
20230000011010013,RS2023487A,256.5758,RS2023487A,2023000001,PC,PT2H,2,HOUR 2,2001-01-13T11:30,10,PLASMA,2001-01-13T09:30,OPEN LABEL TREATMENT
20230000011010013,RS2023,245.7731,RS2023,2023000001,PC,PT3H,3,HOUR 3,2001-01-13T12:30,11,PLASMA,2001-01-13T09:30,OPEN LABEL TREATMENT
20230000011010013,RS2023487A,566.6847,RS2023487A,2023000001,PC,PT3H,3,HOUR 3,2001-01-13T12:30,12,PLASMA,2001-01-13T09:30,OPEN LABEL TREATMENT
20230000011010013,RS2023,200.2329,RS2023,2023000001,PC,PT4H,4,HOUR 4,2001-01-13T13:30,13,PLASMA,2001-01-13T09:30,OPEN LABEL TREATMENT
20230000011010013,RS2023487A,797.1898,RS2023487A,2023000001,PC,PT4H,4,HOUR 4,2001-01-13T13:30,14,PLASMA,2001-01-13T09:30,OPEN LABEL TREATMENT
20230000011010013,RS2023,87.9537,RS2023,2023000001,PC,PT6H,6,HOUR 6,2001-01-13T15:30,15,PLASMA,2001-01-13T09:30,OPEN LABEL TREATMENT
20230000011010013,RS2023487A,939.0401,RS2023487A,2023000001,PC,PT6H,6,HOUR 6,2001-01-13T15:30,16,PLASMA,2001-01-13T09:30,OPEN LABEL TREATMENT
20230000011010013,RS2023,41.9033,RS2023,2023000001,PC,PT8H,8,HOUR 8,2001-01-13T17:30,17,PLASMA,2001-01-13T09:30,OPEN LABEL TREATMENT
20230000011010013,RS2023487A,852.8792,RS2023487A,2023000001,PC,PT8H,8,HOUR 8,2001-01-13T17:30,18,PLASMA,2001-01-13T09:30,OPEN LABEL TREATMENT
20230000011010013,RS2023,16.8875,RS2023,2023000001,PC,PT10H,10,HOUR 10,2001-01-13T19:30,19,PLASMA,2001-01-13T09:30,OPEN LABEL TREATMENT
20230000011010013,RS2023487A,703.9529,RS2023487A,2023000001,PC,PT10H,10,HOUR 10,2001-01-13T19:30,20,PLASMA,2001-01-13T09:30,OPEN LABEL TREATMENT
20230000011010013,RS2023,9.4455,RS2023,2023000001,PC,PT12H,12,HOUR 12,2001-01-13T21:30,21,PLASMA,2001-01-13T09:30,OPEN LABEL TREATMENT
20230000011010013,RS2023487A,558.3046,RS2023487A,2023000001,PC,PT12H,12,HOUR 12,2001-01-13T21:30,22,PLASMA,2001-01-13T09:30,OPEN LABEL TREATMENT
20230000011010013,RS2023,2.4961,RS2023,2023000001,PC,PT24H,24,HOUR 24,2001-01-14T09:30,23,PLASMA,2001-01-13T09:30,OPEN LABEL TREATMENT
20230000011010013,RS2023487A,127.0382,RS2023487A,2023000001,PC,PT24H,24,HOUR 24,2001-01-14T09:30,24,PLASMA,2001-01-13T09:30,OPEN LABEL TREATMENT
20230000011010013,RS2023,0.9473,RS2023,2023000001,PC,PT48H,48,HOUR 48,2001-01-15T09:30,25,PLASMA,2001-01-13T09:30,OPEN LABEL TREATMENT
20230000011010013,RS2023487A,16.3064,RS2023487A,2023000001,PC,PT48H,48,HOUR 48,2001-01-15T09:30,26,PLASMA,2001-01-13T09:30,OPEN LABEL TREATMENT
20230000011010013,RS2023,0.3269,RS2023,2023000001,PC,PT72H,72,HOUR 72,2001-01-16T09:30,27,PLASMA,2001-01-13T09:30,OPEN LABEL TREATMENT
20230000011010013,RS2023487A,4.8656,RS2023487A,2023000001,PC,PT72H,72,HOUR 72,2001-01-16T09:30,28,PLASMA,2001-01-13T09:30,OPEN LABEL TREATMENT
20230000011010013,RS2023,0.1271,RS2023,2023000001,PC,PT96H,96,HOUR 96,2001-01-17T09:30,29,PLASMA,2001-01-13T09:30,OPEN LABEL TREATMENT
20230000011010013,RS2023487A,1.6682,RS2023487A,2023000001,PC,PT96H,96,HOUR 96,2001-01-17T09:30,30,PLASMA,2001-01-13T09:30,OPEN LABEL TREATMENT
20230000011010013,RS2023,0.0133,RS2023,2023000001,PC,PT144H,144,HOUR 144,2001-01-19T09:30,31,PLASMA,2001-01-13T09:30,OPEN LABEL TREATMENT
20230000011010013,RS2023487A,0.2013,RS2023487A,2023000001,PC,PT144H,144,HOUR 144,2001-01-19T09:30,32,PLASMA,2001-01-13T09:30,OPEN LABEL TREATMENT
20230000011010013,RS2023,0.0042,RS2023,2023000001,PC,PT168H,168,HOUR 168,2001-01-20T09:30,33,PLASMA,2001-01-13T09:30,OPEN LABEL TREATMENT
20230000011010013,RS2023487A,0.07,RS2023487A,2023000001,PC,PT168H,168,HOUR 168,2001-01-20T09:30,34,PLASMA,2001-01-13T09:30,OPEN LABEL TREATMENT
20230000011010018,RS2023,0,RS2023,2023000001,PC,PT0H,0,PREDOSE,2001-01-18T12:32,1,PLASMA,2001-01-18T12:32,OPEN LABEL TREATMENT
20230000011010018,RS2023487A,0,RS2023487A,2023000001,PC,PT0H,0,PREDOSE,2001-01-18T12:32,2,PLASMA,2001-01-18T12:32,OPEN LABEL TREATMENT
20230000011010018,RS2023,21.6893,RS2023,2023000001,PC,PT0.5H,0.5,HOUR 0.5,2001-01-18T13:02,3,PLASMA,2001-01-18T12:32,OPEN LABEL TREATMENT
20230000011010018,RS2023487A,4.5785,RS2023487A,2023000001,PC,PT0.5H,0.5,HOUR 0.5,2001-01-18T13:02,4,PLASMA,2001-01-18T12:32,OPEN LABEL TREATMENT
20230000011010018,RS2023,82.0529,RS2023,2023000001,PC,PT1H,1,HOUR 1,2001-01-18T13:32,5,PLASMA,2001-01-18T12:32,OPEN LABEL TREATMENT
20230000011010018,RS2023487A,30.0308,RS2023487A,2023000001,PC,PT1H,1,HOUR 1,2001-01-18T13:32,6,PLASMA,2001-01-18T12:32,OPEN LABEL TREATMENT
20230000011010018,RS2023,151.1899,RS2023,2023000001,PC,PT1.5H,1.5,HOUR 1.5,2001-01-18T14:02,7,PLASMA,2001-01-18T12:32,OPEN LABEL TREATMENT
20230000011010018,RS2023487A,83.4895,RS2023487A,2023000001,PC,PT1.5H,1.5,HOUR 1.5,2001-01-18T14:02,8,PLASMA,2001-01-18T12:32,OPEN LABEL TREATMENT
20230000011010018,RS2023,191.2763,RS2023,2023000001,PC,PT2H,2,HOUR 2,2001-01-18T14:32,9,PLASMA,2001-01-18T12:32,OPEN LABEL TREATMENT
20230000011010018,RS2023487A,163.4987,RS2023487A,2023000001,PC,PT2H,2,HOUR 2,2001-01-18T14:32,10,PLASMA,2001-01-18T12:32,OPEN LABEL TREATMENT
20230000011010018,RS2023,207.6726,RS2023,2023000001,PC,PT3H,3,HOUR 3,2001-01-18T15:32,11,PLASMA,2001-01-18T12:32,OPEN LABEL TREATMENT
20230000011010018,RS2023487A,336.9286,RS2023487A,2023000001,PC,PT3H,3,HOUR 3,2001-01-18T15:32,12,PLASMA,2001-01-18T12:32,OPEN LABEL TREATMENT
20230000011010018,RS2023,173.2447,RS2023,2023000001,PC,PT4H,4,HOUR 4,2001-01-18T16:32,13,PLASMA,2001-01-18T12:32,OPEN LABEL TREATMENT
20230000011010018,RS2023487A,442.9737,RS2023487A,2023000001,PC,PT4H,4,HOUR 4,2001-01-18T16:32,14,PLASMA,2001-01-18T12:32,OPEN LABEL TREATMENT
20230000011010018,RS2023,87.0235,RS2023,2023000001,PC,PT6H,6,HOUR 6,2001-01-18T18:32,15,PLASMA,2001-01-18T12:32,OPEN LABEL TREATMENT
20230000011010018,RS2023487A,449.0564,RS2023487A,2023000001,PC,PT6H,6,HOUR 6,2001-01-18T18:32,16,PLASMA,2001-01-18T12:32,OPEN LABEL TREATMENT
20230000011010018,RS2023,44.4936,RS2023,2023000001,PC,PT8H,8,HOUR 8,2001-01-18T20:32,17,PLASMA,2001-01-18T12:32,OPEN LABEL TREATMENT
20230000011010018,RS2023487A,336.8885,RS2023487A,2023000001,PC,PT8H,8,HOUR 8,2001-01-18T20:32,18,PLASMA,2001-01-18T12:32,OPEN LABEL TREATMENT
20230000011010018,RS2023,22.0131,RS2023,2023000001,PC,PT10H,10,HOUR 10,2001-01-18T22:32,19,PLASMA,2001-01-18T12:32,OPEN LABEL TREATMENT
20230000011010018,RS2023487A,222.2033,RS2023487A,2023000001,PC,PT10H,10,HOUR 10,2001-01-18T22:32,20,PLASMA,2001-01-18T12:32,OPEN LABEL TREATMENT
20230000011010018,RS2023,12.5302,RS2023,2023000001,PC,PT12H,12,HOUR 12,2001-01-19T00:32,21,PLASMA,2001-01-18T12:32,OPEN LABEL TREATMENT
20230000011010018,RS2023487A,138.381,RS2023487A,2023000001,PC,PT12H,12,HOUR 12,2001-01-19T00:32,22,PLASMA,2001-01-18T12:32,OPEN LABEL TREATMENT
20230000011010018,RS2023,2.6165,RS2023,2023000001,PC,PT24H,24,HOUR 24,2001-01-19T12:32,23,PLASMA,2001-01-18T12:32,OPEN LABEL TREATMENT
20230000011010018,RS2023487A,14.0717,RS2023487A,2023000001,PC,PT24H,24,HOUR 24,2001-01-19T12:32,24,PLASMA,2001-01-18T12:32,OPEN LABEL TREATMENT
20230000011010018,RS2023,1.1207,RS2023,2023000001,PC,PT48H,48,HOUR 48,2001-01-20T12:32,25,PLASMA,2001-01-18T12:32,OPEN LABEL TREATMENT
20230000011010018,RS2023487A,4.0076,RS2023487A,2023000001,PC,PT48H,48,HOUR 48,2001-01-20T12:32,26,PLASMA,2001-01-18T12:32,OPEN LABEL TREATMENT
20230000011010018,RS2023,0.4324,RS2023,2023000001,PC,PT72H,72,HOUR 72,2001-01-21T12:32,27,PLASMA,2001-01-18T12:32,OPEN LABEL TREATMENT
20230000011010018,RS2023487A,1.425,RS2023487A,2023000001,PC,PT72H,72,HOUR 72,2001-01-21T12:32,28,PLASMA,2001-01-18T12:32,OPEN LABEL TREATMENT
20230000011010018,RS2023,0.1415,RS2023,2023000001,PC,PT96H,96,HOUR 96,2001-01-22T12:32,29,PLASMA,2001-01-18T12:32,OPEN LABEL TREATMENT
20230000011010018,RS2023487A,0.5068,RS2023487A,2023000001,PC,PT96H,96,HOUR 96,2001-01-22T12:32,30,PLASMA,2001-01-18T12:32,OPEN LABEL TREATMENT
20230000011010018,RS2023,0.0186,RS2023,2023000001,PC,PT144H,144,HOUR 144,2001-01-24T12:32,31,PLASMA,2001-01-18T12:32,OPEN LABEL TREATMENT
20230000011010018,RS2023487A,0.0641,RS2023487A,2023000001,PC,PT144H,144,HOUR 144,2001-01-24T12:32,32,PLASMA,2001-01-18T12:32,OPEN LABEL TREATMENT
20230000011010018,RS2023,0.0059,RS2023,2023000001,PC,PT168H,168,HOUR 168,2001-01-25T12:32,33,PLASMA,2001-01-18T12:32,OPEN LABEL TREATMENT
20230000011010018,RS2023487A,0.0228,RS2023487A,2023000001,PC,PT168H,168,HOUR 168,2001-01-25T12:32,34,PLASMA,2001-01-18T12:32,OPEN LABEL TREATMENT
20230000011010019,RS2023,0,RS2023,2023000001,PC,PT0H,0,PREDOSE,2001-01-19T09:31,1,PLASMA,2001-01-19T09:31,OPEN LABEL TREATMENT
20230000011010019,RS2023487A,0,RS2023487A,2023000001,PC,PT0H,0,PREDOSE,2001-01-19T09:31,2,PLASMA,2001-01-19T09:31,OPEN LABEL TREATMENT
20230000011010019,RS2023,12.7095,RS2023,2023000001,PC,PT0.5H,0.5,HOUR 0.5,2001-01-19T10:01,3,PLASMA,2001-01-19T09:31,OPEN LABEL TREATMENT
20230000011010019,RS2023487A,3.3676,RS2023487A,2023000001,PC,PT0.5H,0.5,HOUR 0.5,2001-01-19T10:01,4,PLASMA,2001-01-19T09:31,OPEN LABEL TREATMENT
20230000011010019,RS2023,48.265,RS2023,2023000001,PC,PT1H,1,HOUR 1,2001-01-19T10:31,5,PLASMA,2001-01-19T09:31,OPEN LABEL TREATMENT
20230000011010019,RS2023487A,22.9055,RS2023487A,2023000001,PC,PT1H,1,HOUR 1,2001-01-19T10:31,6,PLASMA,2001-01-19T09:31,OPEN LABEL TREATMENT
20230000011010019,RS2023,88.5502,RS2023,2023000001,PC,PT1.5H,1.5,HOUR 1.5,2001-01-19T11:01,7,PLASMA,2001-01-19T09:31,OPEN LABEL TREATMENT
20230000011010019,RS2023487A,65.9868,RS2023487A,2023000001,PC,PT1.5H,1.5,HOUR 1.5,2001-01-19T11:01,8,PLASMA,2001-01-19T09:31,OPEN LABEL TREATMENT
20230000011010019,RS2023,138.4819,RS2023,2023000001,PC,PT2H,2,HOUR 2,2001-01-19T11:31,9,PLASMA,2001-01-19T09:31,OPEN LABEL TREATMENT
20230000011010019,RS2023487A,133.5527,RS2023487A,2023000001,PC,PT2H,2,HOUR 2,2001-01-19T11:31,10,PLASMA,2001-01-19T09:31,OPEN LABEL TREATMENT
20230000011010019,RS2023,153.7401,RS2023,2023000001,PC,PT3H,3,HOUR 3,2001-01-19T12:31,11,PLASMA,2001-01-19T09:31,OPEN LABEL TREATMENT
20230000011010019,RS2023487A,294.3326,RS2023487A,2023000001,PC,PT3H,3,HOUR 3,2001-01-19T12:31,12,PLASMA,2001-01-19T09:31,OPEN LABEL TREATMENT
20230000011010019,RS2023,125.6065,RS2023,2023000001,PC,PT4H,4,HOUR 4,2001-01-19T13:31,13,PLASMA,2001-01-19T09:31,OPEN LABEL TREATMENT
20230000011010019,RS2023487A,422.8109,RS2023487A,2023000001,PC,PT4H,4,HOUR 4,2001-01-19T13:31,14,PLASMA,2001-01-19T09:31,OPEN LABEL TREATMENT
20230000011010019,RS2023,64.844,RS2023,2023000001,PC,PT6H,6,HOUR 6,2001-01-19T15:31,15,PLASMA,2001-01-19T09:31,OPEN LABEL TREATMENT
20230000011010019,RS2023487A,527.8842,RS2023487A,2023000001,PC,PT6H,6,HOUR 6,2001-01-19T15:31,16,PLASMA,2001-01-19T09:31,OPEN LABEL TREATMENT
20230000011010019,RS2023,28.6729,RS2023,2023000001,PC,PT8H,8,HOUR 8,2001-01-19T17:31,17,PLASMA,2001-01-19T09:31,OPEN LABEL TREATMENT
20230000011010019,RS2023487A,500.264,RS2023487A,2023000001,PC,PT8H,8,HOUR 8,2001-01-19T17:31,18,PLASMA,2001-01-19T09:31,OPEN LABEL TREATMENT
20230000011010019,RS2023,12.8284,RS2023,2023000001,PC,PT10H,10,HOUR 10,2001-01-19T19:31,19,PLASMA,2001-01-19T09:31,OPEN LABEL TREATMENT
20230000011010019,RS2023487A,424.0271,RS2023487A,2023000001,PC,PT10H,10,HOUR 10,2001-01-19T19:31,20,PLASMA,2001-01-19T09:31,OPEN LABEL TREATMENT
20230000011010019,RS2023,6.1307,RS2023,2023000001,PC,PT12H,12,HOUR 12,2001-01-19T21:31,21,PLASMA,2001-01-19T09:31,OPEN LABEL TREATMENT
20230000011010019,RS2023487A,341.9041,RS2023487A,2023000001,PC,PT12H,12,HOUR 12,2001-01-19T21:31,22,PLASMA,2001-01-19T09:31,OPEN LABEL TREATMENT
20230000011010019,RS2023,0.9783,RS2023,2023000001,PC,PT24H,24,HOUR 24,2001-01-20T09:31,23,PLASMA,2001-01-19T09:31,OPEN LABEL TREATMENT
20230000011010019,RS2023487A,78.2974,RS2023487A,2023000001,PC,PT24H,24,HOUR 24,2001-01-20T09:31,24,PLASMA,2001-01-19T09:31,OPEN LABEL TREATMENT
20230000011010019,RS2023,0.4112,RS2023,2023000001,PC,PT48H,48,HOUR 48,2001-01-21T09:31,25,PLASMA,2001-01-19T09:31,OPEN LABEL TREATMENT
20230000011010019,RS2023487A,7.3193,RS2023487A,2023000001,PC,PT48H,48,HOUR 48,2001-01-21T09:31,26,PLASMA,2001-01-19T09:31,OPEN LABEL TREATMENT
20230000011010019,RS2023,0.1269,RS2023,2023000001,PC,PT72H,72,HOUR 72,2001-01-22T09:31,27,PLASMA,2001-01-19T09:31,OPEN LABEL TREATMENT
20230000011010019,RS2023487A,1.8615,RS2023487A,2023000001,PC,PT72H,72,HOUR 72,2001-01-22T09:31,28,PLASMA,2001-01-19T09:31,OPEN LABEL TREATMENT
20230000011010019,RS2023,0.0476,RS2023,2023000001,PC,PT96H,96,HOUR 96,2001-01-23T09:31,29,PLASMA,2001-01-19T09:31,OPEN LABEL TREATMENT
20230000011010019,RS2023487A,0.6449,RS2023487A,2023000001,PC,PT96H,96,HOUR 96,2001-01-23T09:31,30,PLASMA,2001-01-19T09:31,OPEN LABEL TREATMENT
20230000011010019,RS2023,0.0049,RS2023,2023000001,PC,PT144H,144,HOUR 144,2001-01-25T09:31,31,PLASMA,2001-01-19T09:31,OPEN LABEL TREATMENT
20230000011010019,RS2023487A,0.0842,RS2023487A,2023000001,PC,PT144H,144,HOUR 144,2001-01-25T09:31,32,PLASMA,2001-01-19T09:31,OPEN LABEL TREATMENT
20230000011010019,RS2023,0.0026,RS2023,2023000001,PC,PT168H,168,HOUR 168,2001-01-26T09:31,33,PLASMA,2001-01-19T09:31,OPEN LABEL TREATMENT
20230000011010019,RS2023487A,0.0305,RS2023487A,2023000001,PC,PT168H,168,HOUR 168,2001-01-26T09:31,34,PLASMA,2001-01-19T09:31,OPEN LABEL TREATMENT
20230000011010020,RS2023,0,RS2023,2023000001,PC,PT0H,0,PREDOSE,2001-01-19T11:19,1,PLASMA,2001-01-19T11:19,OPEN LABEL TREATMENT
20230000011010020,RS2023487A,0,RS2023487A,2023000001,PC,PT0H,0,PREDOSE,2001-01-19T11:19,2,PLASMA,2001-01-19T11:19,OPEN LABEL TREATMENT
20230000011010020,RS2023,46.1288,RS2023,2023000001,PC,PT0.5H,0.5,HOUR 0.5,2001-01-19T11:49,3,PLASMA,2001-01-19T11:19,OPEN LABEL TREATMENT
20230000011010020,RS2023487A,8.4349,RS2023487A,2023000001,PC,PT0.5H,0.5,HOUR 0.5,2001-01-19T11:49,4,PLASMA,2001-01-19T11:19,OPEN LABEL TREATMENT
20230000011010020,RS2023,167.7046,RS2023,2023000001,PC,PT1H,1,HOUR 1,2001-01-19T12:19,5,PLASMA,2001-01-19T11:19,OPEN LABEL TREATMENT
20230000011010020,RS2023487A,56.4567,RS2023487A,2023000001,PC,PT1H,1,HOUR 1,2001-01-19T12:19,6,PLASMA,2001-01-19T11:19,OPEN LABEL TREATMENT
20230000011010020,RS2023,388.9707,RS2023,2023000001,PC,PT1.5H,1.5,HOUR 1.5,2001-01-19T12:49,7,PLASMA,2001-01-19T11:19,OPEN LABEL TREATMENT
20230000011010020,RS2023487A,160.1967,RS2023487A,2023000001,PC,PT1.5H,1.5,HOUR 1.5,2001-01-19T12:49,8,PLASMA,2001-01-19T11:19,OPEN LABEL TREATMENT
20230000011010020,RS2023,488.3523,RS2023,2023000001,PC,PT2H,2,HOUR 2,2001-01-19T13:19,9,PLASMA,2001-01-19T11:19,OPEN LABEL TREATMENT
20230000011010020,RS2023487A,319.5304,RS2023487A,2023000001,PC,PT2H,2,HOUR 2,2001-01-19T13:19,10,PLASMA,2001-01-19T11:19,OPEN LABEL TREATMENT
20230000011010020,RS2023,571.0917,RS2023,2023000001,PC,PT3H,3,HOUR 3,2001-01-19T14:19,11,PLASMA,2001-01-19T11:19,OPEN LABEL TREATMENT
20230000011010020,RS2023487A,680.8028,RS2023487A,2023000001,PC,PT3H,3,HOUR 3,2001-01-19T14:19,12,PLASMA,2001-01-19T11:19,OPEN LABEL TREATMENT
20230000011010020,RS2023,432.9202,RS2023,2023000001,PC,PT4H,4,HOUR 4,2001-01-19T15:19,13,PLASMA,2001-01-19T11:19,OPEN LABEL TREATMENT
20230000011010020,RS2023487A,942.8383,RS2023487A,2023000001,PC,PT4H,4,HOUR 4,2001-01-19T15:19,14,PLASMA,2001-01-19T11:19,OPEN LABEL TREATMENT
20230000011010020,RS2023,200.4424,RS2023,2023000001,PC,PT6H,6,HOUR 6,2001-01-19T17:19,15,PLASMA,2001-01-19T11:19,OPEN LABEL TREATMENT
20230000011010020,RS2023487A,1090.8872,RS2023487A,2023000001,PC,PT6H,6,HOUR 6,2001-01-19T17:19,16,PLASMA,2001-01-19T11:19,OPEN LABEL TREATMENT
20230000011010020,RS2023,95.5282,RS2023,2023000001,PC,PT8H,8,HOUR 8,2001-01-19T19:19,17,PLASMA,2001-01-19T11:19,OPEN LABEL TREATMENT
20230000011010020,RS2023487A,951.2783,RS2023487A,2023000001,PC,PT8H,8,HOUR 8,2001-01-19T19:19,18,PLASMA,2001-01-19T11:19,OPEN LABEL TREATMENT
20230000011010020,RS2023,56.0113,RS2023,2023000001,PC,PT10H,10,HOUR 10,2001-01-19T21:19,19,PLASMA,2001-01-19T11:19,OPEN LABEL TREATMENT
20230000011010020,RS2023487A,733.9146,RS2023487A,2023000001,PC,PT10H,10,HOUR 10,2001-01-19T21:19,20,PLASMA,2001-01-19T11:19,OPEN LABEL TREATMENT
20230000011010020,RS2023,19.3455,RS2023,2023000001,PC,PT12H,12,HOUR 12,2001-01-19T23:19,21,PLASMA,2001-01-19T11:19,OPEN LABEL TREATMENT
20230000011010020,RS2023487A,532.3076,RS2023487A,2023000001,PC,PT12H,12,HOUR 12,2001-01-19T23:19,22,PLASMA,2001-01-19T11:19,OPEN LABEL TREATMENT
20230000011010020,RS2023,3.2538,RS2023,2023000001,PC,PT24H,24,HOUR 24,2001-01-20T11:19,23,PLASMA,2001-01-19T11:19,OPEN LABEL TREATMENT
20230000011010020,RS2023487A,59.9309,RS2023487A,2023000001,PC,PT24H,24,HOUR 24,2001-01-20T11:19,24,PLASMA,2001-01-19T11:19,OPEN LABEL TREATMENT
20230000011010020,RS2023,1.4248,RS2023,2023000001,PC,PT48H,48,HOUR 48,2001-01-21T11:19,25,PLASMA,2001-01-19T11:19,OPEN LABEL TREATMENT
20230000011010020,RS2023487A,8.2696,RS2023487A,2023000001,PC,PT48H,48,HOUR 48,2001-01-21T11:19,26,PLASMA,2001-01-19T11:19,OPEN LABEL TREATMENT
20230000011010020,RS2023,0.8531,RS2023,2023000001,PC,PT72H,72,HOUR 72,2001-01-22T11:19,27,PLASMA,2001-01-19T11:19,OPEN LABEL TREATMENT
20230000011010020,RS2023487A,4.4674,RS2023487A,2023000001,PC,PT72H,72,HOUR 72,2001-01-22T11:19,28,PLASMA,2001-01-19T11:19,OPEN LABEL TREATMENT
20230000011010020,RS2023,0.5362,RS2023,2023000001,PC,PT96H,96,HOUR 96,2001-01-23T11:19,29,PLASMA,2001-01-19T11:19,OPEN LABEL TREATMENT
20230000011010020,RS2023487A,2.4886,RS2023487A,2023000001,PC,PT96H,96,HOUR 96,2001-01-23T11:19,30,PLASMA,2001-01-19T11:19,OPEN LABEL TREATMENT
20230000011010020,RS2023,0.141,RS2023,2023000001,PC,PT144H,144,HOUR 144,2001-01-25T11:19,31,PLASMA,2001-01-19T11:19,OPEN LABEL TREATMENT
20230000011010020,RS2023487A,0.7727,RS2023487A,2023000001,PC,PT144H,144,HOUR 144,2001-01-25T11:19,32,PLASMA,2001-01-19T11:19,OPEN LABEL TREATMENT
20230000011010020,RS2023,0.0787,RS2023,2023000001,PC,PT168H,168,HOUR 168,2001-01-26T11:19,33,PLASMA,2001-01-19T11:19,OPEN LABEL TREATMENT
20230000011010020,RS2023487A,0.4306,RS2023487A,2023000001,PC,PT168H,168,HOUR 168,2001-01-26T11:19,34,PLASMA,2001-01-19T11:19,OPEN LABEL TREATMENT
20230000011010021,RS2023,0,RS2023,2023000001,PC,PT0H,0,PREDOSE,2001-01-19T09:57,1,PLASMA,2001-01-19T09:57,OPEN LABEL TREATMENT
20230000011010021,RS2023487A,0,RS2023487A,2023000001,PC,PT0H,0,PREDOSE,2001-01-19T09:57,2,PLASMA,2001-01-19T09:57,OPEN LABEL TREATMENT
20230000011010021,RS2023,62.927,RS2023,2023000001,PC,PT0.5H,0.5,HOUR 0.5,2001-01-19T10:27,3,PLASMA,2001-01-19T09:57,OPEN LABEL TREATMENT
20230000011010021,RS2023487A,19.5566,RS2023487A,2023000001,PC,PT0.5H,0.5,HOUR 0.5,2001-01-19T10:27,4,PLASMA,2001-01-19T09:57,OPEN LABEL TREATMENT
20230000011010021,RS2023,205.721,RS2023,2023000001,PC,PT1H,1,HOUR 1,2001-01-19T10:57,5,PLASMA,2001-01-19T09:57,OPEN LABEL TREATMENT
20230000011010021,RS2023487A,128.8036,RS2023487A,2023000001,PC,PT1H,1,HOUR 1,2001-01-19T10:57,6,PLASMA,2001-01-19T09:57,OPEN LABEL TREATMENT
20230000011010021,RS2023,322.7457,RS2023,2023000001,PC,PT1.5H,1.5,HOUR 1.5,2001-01-19T11:27,7,PLASMA,2001-01-19T09:57,OPEN LABEL TREATMENT
20230000011010021,RS2023487A,358.8327,RS2023487A,2023000001,PC,PT1.5H,1.5,HOUR 1.5,2001-01-19T11:27,8,PLASMA,2001-01-19T09:57,OPEN LABEL TREATMENT
20230000011010021,RS2023,382.2429,RS2023,2023000001,PC,PT2H,2,HOUR 2,2001-01-19T11:57,9,PLASMA,2001-01-19T09:57,OPEN LABEL TREATMENT
20230000011010021,RS2023487A,666.6679,RS2023487A,2023000001,PC,PT2H,2,HOUR 2,2001-01-19T11:57,10,PLASMA,2001-01-19T09:57,OPEN LABEL TREATMENT
20230000011010021,RS2023,308.5351,RS2023,2023000001,PC,PT3H,3,HOUR 3,2001-01-19T12:57,11,PLASMA,2001-01-19T09:57,OPEN LABEL TREATMENT
20230000011010021,RS2023487A,1215.6454,RS2023487A,2023000001,PC,PT3H,3,HOUR 3,2001-01-19T12:57,12,PLASMA,2001-01-19T09:57,OPEN LABEL TREATMENT
20230000011010021,RS2023,284.7964,RS2023,2023000001,PC,PT4H,4,HOUR 4,2001-01-19T13:57,13,PLASMA,2001-01-19T09:57,OPEN LABEL TREATMENT
20230000011010021,RS2023487A,1512.0027,RS2023487A,2023000001,PC,PT4H,4,HOUR 4,2001-01-19T13:57,14,PLASMA,2001-01-19T09:57,OPEN LABEL TREATMENT
20230000011010021,RS2023,97.1526,RS2023,2023000001,PC,PT6H,6,HOUR 6,2001-01-19T15:57,15,PLASMA,2001-01-19T09:57,OPEN LABEL TREATMENT
20230000011010021,RS2023487A,1485.805,RS2023487A,2023000001,PC,PT6H,6,HOUR 6,2001-01-19T15:57,16,PLASMA,2001-01-19T09:57,OPEN LABEL TREATMENT
20230000011010021,RS2023,51.07,RS2023,2023000001,PC,PT8H,8,HOUR 8,2001-01-19T17:57,17,PLASMA,2001-01-19T09:57,OPEN LABEL TREATMENT
20230000011010021,RS2023487A,1129.3552,RS2023487A,2023000001,PC,PT8H,8,HOUR 8,2001-01-19T17:57,18,PLASMA,2001-01-19T09:57,OPEN LABEL TREATMENT
20230000011010021,RS2023,19.1704,RS2023,2023000001,PC,PT10H,10,HOUR 10,2001-01-19T19:57,19,PLASMA,2001-01-19T09:57,OPEN LABEL TREATMENT
20230000011010021,RS2023487A,772.0322,RS2023487A,2023000001,PC,PT10H,10,HOUR 10,2001-01-19T19:57,20,PLASMA,2001-01-19T09:57,OPEN LABEL TREATMENT
20230000011010021,RS2023,8.4161,RS2023,2023000001,PC,PT12H,12,HOUR 12,2001-01-19T21:57,21,PLASMA,2001-01-19T09:57,OPEN LABEL TREATMENT
20230000011010021,RS2023487A,504.3152,RS2023487A,2023000001,PC,PT12H,12,HOUR 12,2001-01-19T21:57,22,PLASMA,2001-01-19T09:57,OPEN LABEL TREATMENT
20230000011010021,RS2023,2.2839,RS2023,2023000001,PC,PT24H,24,HOUR 24,2001-01-20T09:57,23,PLASMA,2001-01-19T09:57,OPEN LABEL TREATMENT
20230000011010021,RS2023487A,46.531,RS2023487A,2023000001,PC,PT24H,24,HOUR 24,2001-01-20T09:57,24,PLASMA,2001-01-19T09:57,OPEN LABEL TREATMENT
20230000011010021,RS2023,0.8923,RS2023,2023000001,PC,PT48H,48,HOUR 48,2001-01-21T09:57,25,PLASMA,2001-01-19T09:57,OPEN LABEL TREATMENT
20230000011010021,RS2023487A,8.8131,RS2023487A,2023000001,PC,PT48H,48,HOUR 48,2001-01-21T09:57,26,PLASMA,2001-01-19T09:57,OPEN LABEL TREATMENT
20230000011010021,RS2023,0.4223,RS2023,2023000001,PC,PT72H,72,HOUR 72,2001-01-22T09:57,27,PLASMA,2001-01-19T09:57,OPEN LABEL TREATMENT
20230000011010021,RS2023487A,3.4591,RS2023487A,2023000001,PC,PT72H,72,HOUR 72,2001-01-22T09:57,28,PLASMA,2001-01-19T09:57,OPEN LABEL TREATMENT
20230000011010021,RS2023,0.1555,RS2023,2023000001,PC,PT96H,96,HOUR 96,2001-01-23T09:57,29,PLASMA,2001-01-19T09:57,OPEN LABEL TREATMENT
20230000011010021,RS2023487A,1.3667,RS2023487A,2023000001,PC,PT96H,96,HOUR 96,2001-01-23T09:57,30,PLASMA,2001-01-19T09:57,OPEN LABEL TREATMENT
20230000011010021,RS2023,0.0239,RS2023,2023000001,PC,PT144H,144,HOUR 144,2001-01-25T09:57,31,PLASMA,2001-01-19T09:57,OPEN LABEL TREATMENT
20230000011010021,RS2023487A,0.2134,RS2023487A,2023000001,PC,PT144H,144,HOUR 144,2001-01-25T09:57,32,PLASMA,2001-01-19T09:57,OPEN LABEL TREATMENT
20230000011010021,RS2023,0.01,RS2023,2023000001,PC,PT168H,168,HOUR 168,2001-01-26T09:57,33,PLASMA,2001-01-19T09:57,OPEN LABEL TREATMENT
20230000011010021,RS2023487A,0.0843,RS2023487A,2023000001,PC,PT168H,168,HOUR 168,2001-01-26T09:57,34,PLASMA,2001-01-19T09:57,OPEN LABEL TREATMENT
20230000011010022,RS2023,0,RS2023,2023000001,PC,PT0H,0,PREDOSE,2001-01-16T09:50,1,PLASMA,2001-01-16T09:50,OPEN LABEL TREATMENT
20230000011010022,RS2023487A,0,RS2023487A,2023000001,PC,PT0H,0,PREDOSE,2001-01-16T09:50,2,PLASMA,2001-01-16T09:50,OPEN LABEL TREATMENT
20230000011010022,RS2023,76.2252,RS2023,2023000001,PC,PT0.5H,0.5,HOUR 0.5,2001-01-16T10:20,3,PLASMA,2001-01-16T09:50,OPEN LABEL TREATMENT
20230000011010022,RS2023487A,37.4901,RS2023487A,2023000001,PC,PT0.5H,0.5,HOUR 0.5,2001-01-16T10:20,4,PLASMA,2001-01-16T09:50,OPEN LABEL TREATMENT
20230000011010022,RS2023,213.8391,RS2023,2023000001,PC,PT1H,1,HOUR 1,2001-01-16T10:50,5,PLASMA,2001-01-16T09:50,OPEN LABEL TREATMENT
20230000011010022,RS2023487A,246.4207,RS2023487A,2023000001,PC,PT1H,1,HOUR 1,2001-01-16T10:50,6,PLASMA,2001-01-16T09:50,OPEN LABEL TREATMENT
20230000011010022,RS2023,274.6079,RS2023,2023000001,PC,PT1.5H,1.5,HOUR 1.5,2001-01-16T11:20,7,PLASMA,2001-01-16T09:50,OPEN LABEL TREATMENT
20230000011010022,RS2023487A,663.3946,RS2023487A,2023000001,PC,PT1.5H,1.5,HOUR 1.5,2001-01-16T11:20,8,PLASMA,2001-01-16T09:50,OPEN LABEL TREATMENT
20230000011010022,RS2023,367.3398,RS2023,2023000001,PC,PT2H,2,HOUR 2,2001-01-16T11:50,9,PLASMA,2001-01-16T09:50,OPEN LABEL TREATMENT
20230000011010022,RS2023487A,1152.1232,RS2023487A,2023000001,PC,PT2H,2,HOUR 2,2001-01-16T11:50,10,PLASMA,2001-01-16T09:50,OPEN LABEL TREATMENT
20230000011010022,RS2023,294.7149,RS2023,2023000001,PC,PT3H,3,HOUR 3,2001-01-16T12:50,11,PLASMA,2001-01-16T09:50,OPEN LABEL TREATMENT
20230000011010022,RS2023487A,1961.229,RS2023487A,2023000001,PC,PT3H,3,HOUR 3,2001-01-16T12:50,12,PLASMA,2001-01-16T09:50,OPEN LABEL TREATMENT
20230000011010022,RS2023,212.2829,RS2023,2023000001,PC,PT4H,4,HOUR 4,2001-01-16T13:50,13,PLASMA,2001-01-16T09:50,OPEN LABEL TREATMENT
20230000011010022,RS2023487A,2386.6432,RS2023487A,2023000001,PC,PT4H,4,HOUR 4,2001-01-16T13:50,14,PLASMA,2001-01-16T09:50,OPEN LABEL TREATMENT
20230000011010022,RS2023,78.8926,RS2023,2023000001,PC,PT6H,6,HOUR 6,2001-01-16T15:50,15,PLASMA,2001-01-16T09:50,OPEN LABEL TREATMENT
20230000011010022,RS2023487A,2386.2739,RS2023487A,2023000001,PC,PT6H,6,HOUR 6,2001-01-16T15:50,16,PLASMA,2001-01-16T09:50,OPEN LABEL TREATMENT
20230000011010022,RS2023,27.3491,RS2023,2023000001,PC,PT8H,8,HOUR 8,2001-01-16T17:50,17,PLASMA,2001-01-16T09:50,OPEN LABEL TREATMENT
20230000011010022,RS2023487A,1932.5911,RS2023487A,2023000001,PC,PT8H,8,HOUR 8,2001-01-16T17:50,18,PLASMA,2001-01-16T09:50,OPEN LABEL TREATMENT
20230000011010022,RS2023,9.1488,RS2023,2023000001,PC,PT10H,10,HOUR 10,2001-01-16T19:50,19,PLASMA,2001-01-16T09:50,OPEN LABEL TREATMENT
20230000011010022,RS2023487A,1448.5004,RS2023487A,2023000001,PC,PT10H,10,HOUR 10,2001-01-16T19:50,20,PLASMA,2001-01-16T09:50,OPEN LABEL TREATMENT
20230000011010022,RS2023,4.2915,RS2023,2023000001,PC,PT12H,12,HOUR 12,2001-01-16T21:50,21,PLASMA,2001-01-16T09:50,OPEN LABEL TREATMENT
20230000011010022,RS2023487A,1054.5968,RS2023487A,2023000001,PC,PT12H,12,HOUR 12,2001-01-16T21:50,22,PLASMA,2001-01-16T09:50,OPEN LABEL TREATMENT
20230000011010022,RS2023,1.0265,RS2023,2023000001,PC,PT24H,24,HOUR 24,2001-01-17T09:50,23,PLASMA,2001-01-16T09:50,OPEN LABEL TREATMENT
20230000011010022,RS2023487A,155.7847,RS2023487A,2023000001,PC,PT24H,24,HOUR 24,2001-01-17T09:50,24,PLASMA,2001-01-16T09:50,OPEN LABEL TREATMENT
20230000011010022,RS2023,0.5158,RS2023,2023000001,PC,PT48H,48,HOUR 48,2001-01-18T09:50,25,PLASMA,2001-01-16T09:50,OPEN LABEL TREATMENT
20230000011010022,RS2023487A,14.6292,RS2023487A,2023000001,PC,PT48H,48,HOUR 48,2001-01-18T09:50,26,PLASMA,2001-01-16T09:50,OPEN LABEL TREATMENT
20230000011010022,RS2023,0.2761,RS2023,2023000001,PC,PT72H,72,HOUR 72,2001-01-19T09:50,27,PLASMA,2001-01-16T09:50,OPEN LABEL TREATMENT
20230000011010022,RS2023487A,5.7903,RS2023487A,2023000001,PC,PT72H,72,HOUR 72,2001-01-19T09:50,28,PLASMA,2001-01-16T09:50,OPEN LABEL TREATMENT
20230000011010022,RS2023,0.1118,RS2023,2023000001,PC,PT96H,96,HOUR 96,2001-01-20T09:50,29,PLASMA,2001-01-16T09:50,OPEN LABEL TREATMENT
20230000011010022,RS2023487A,2.6255,RS2023487A,2023000001,PC,PT96H,96,HOUR 96,2001-01-20T09:50,30,PLASMA,2001-01-16T09:50,OPEN LABEL TREATMENT
20230000011010022,RS2023,0.0263,RS2023,2023000001,PC,PT144H,144,HOUR 144,2001-01-22T09:50,31,PLASMA,2001-01-16T09:50,OPEN LABEL TREATMENT
20230000011010022,RS2023487A,0.5453,RS2023487A,2023000001,PC,PT144H,144,HOUR 144,2001-01-22T09:50,32,PLASMA,2001-01-16T09:50,OPEN LABEL TREATMENT
20230000011010022,RS2023,0.0136,RS2023,2023000001,PC,PT168H,168,HOUR 168,2001-01-23T09:50,33,PLASMA,2001-01-16T09:50,OPEN LABEL TREATMENT
20230000011010022,RS2023487A,0.2486,RS2023487A,2023000001,PC,PT168H,168,HOUR 168,2001-01-23T09:50,34,PLASMA,2001-01-16T09:50,OPEN LABEL TREATMENT
20230000011010023,RS2023,0,RS2023,2023000001,PC,PT0H,0,PREDOSE,2001-01-19T13:01,1,PLASMA,2001-01-19T13:01,OPEN LABEL TREATMENT
20230000011010023,RS2023487A,0,RS2023487A,2023000001,PC,PT0H,0,PREDOSE,2001-01-19T13:01,2,PLASMA,2001-01-19T13:01,OPEN LABEL TREATMENT
20230000011010023,RS2023,47.939,RS2023,2023000001,PC,PT0.5H,0.5,HOUR 0.5,2001-01-19T13:31,3,PLASMA,2001-01-19T13:01,OPEN LABEL TREATMENT
20230000011010023,RS2023487A,6.8476,RS2023487A,2023000001,PC,PT0.5H,0.5,HOUR 0.5,2001-01-19T13:31,4,PLASMA,2001-01-19T13:01,OPEN LABEL TREATMENT
20230000011010023,RS2023,135.7822,RS2023,2023000001,PC,PT1H,1,HOUR 1,2001-01-19T14:01,5,PLASMA,2001-01-19T13:01,OPEN LABEL TREATMENT
20230000011010023,RS2023487A,44.6614,RS2023487A,2023000001,PC,PT1H,1,HOUR 1,2001-01-19T14:01,6,PLASMA,2001-01-19T13:01,OPEN LABEL TREATMENT
20230000011010023,RS2023,326.7751,RS2023,2023000001,PC,PT1.5H,1.5,HOUR 1.5,2001-01-19T14:31,7,PLASMA,2001-01-19T13:01,OPEN LABEL TREATMENT
20230000011010023,RS2023487A,123.632,RS2023487A,2023000001,PC,PT1.5H,1.5,HOUR 1.5,2001-01-19T14:31,8,PLASMA,2001-01-19T13:01,OPEN LABEL TREATMENT
20230000011010023,RS2023,347.4495,RS2023,2023000001,PC,PT2H,2,HOUR 2,2001-01-19T15:01,9,PLASMA,2001-01-19T13:01,OPEN LABEL TREATMENT
20230000011010023,RS2023487A,238.1536,RS2023487A,2023000001,PC,PT2H,2,HOUR 2,2001-01-19T15:01,10,PLASMA,2001-01-19T13:01,OPEN LABEL TREATMENT
20230000011010023,RS2023,373.937,RS2023,2023000001,PC,PT3H,3,HOUR 3,2001-01-19T16:01,11,PLASMA,2001-01-19T13:01,OPEN LABEL TREATMENT
20230000011010023,RS2023487A,461.0392,RS2023487A,2023000001,PC,PT3H,3,HOUR 3,2001-01-19T16:01,12,PLASMA,2001-01-19T13:01,OPEN LABEL TREATMENT
20230000011010023,RS2023,247.3946,RS2023,2023000001,PC,PT4H,4,HOUR 4,2001-01-19T17:01,13,PLASMA,2001-01-19T13:01,OPEN LABEL TREATMENT
20230000011010023,RS2023487A,590.7852,RS2023487A,2023000001,PC,PT4H,4,HOUR 4,2001-01-19T17:01,14,PLASMA,2001-01-19T13:01,OPEN LABEL TREATMENT
20230000011010023,RS2023,75.3463,RS2023,2023000001,PC,PT6H,6,HOUR 6,2001-01-19T19:01,15,PLASMA,2001-01-19T13:01,OPEN LABEL TREATMENT
20230000011010023,RS2023487A,610.357,RS2023487A,2023000001,PC,PT6H,6,HOUR 6,2001-01-19T19:01,16,PLASMA,2001-01-19T13:01,OPEN LABEL TREATMENT
20230000011010023,RS2023,31.0786,RS2023,2023000001,PC,PT8H,8,HOUR 8,2001-01-19T21:01,17,PLASMA,2001-01-19T13:01,OPEN LABEL TREATMENT
20230000011010023,RS2023487A,497.8737,RS2023487A,2023000001,PC,PT8H,8,HOUR 8,2001-01-19T21:01,18,PLASMA,2001-01-19T13:01,OPEN LABEL TREATMENT
20230000011010023,RS2023,9.1024,RS2023,2023000001,PC,PT10H,10,HOUR 10,2001-01-19T23:01,19,PLASMA,2001-01-19T13:01,OPEN LABEL TREATMENT
20230000011010023,RS2023487A,374.2583,RS2023487A,2023000001,PC,PT10H,10,HOUR 10,2001-01-19T23:01,20,PLASMA,2001-01-19T13:01,OPEN LABEL TREATMENT
20230000011010023,RS2023,4.3589,RS2023,2023000001,PC,PT12H,12,HOUR 12,2001-01-20T01:01,21,PLASMA,2001-01-19T13:01,OPEN LABEL TREATMENT
20230000011010023,RS2023487A,273.4465,RS2023487A,2023000001,PC,PT12H,12,HOUR 12,2001-01-20T01:01,22,PLASMA,2001-01-19T13:01,OPEN LABEL TREATMENT
20230000011010023,RS2023,1.6452,RS2023,2023000001,PC,PT24H,24,HOUR 24,2001-01-20T13:01,23,PLASMA,2001-01-19T13:01,OPEN LABEL TREATMENT
20230000011010023,RS2023487A,42.296,RS2023487A,2023000001,PC,PT24H,24,HOUR 24,2001-01-20T13:01,24,PLASMA,2001-01-19T13:01,OPEN LABEL TREATMENT
20230000011010023,RS2023,0.5123,RS2023,2023000001,PC,PT48H,48,HOUR 48,2001-01-21T13:01,25,PLASMA,2001-01-19T13:01,OPEN LABEL TREATMENT
20230000011010023,RS2023487A,3.988,RS2023487A,2023000001,PC,PT48H,48,HOUR 48,2001-01-21T13:01,26,PLASMA,2001-01-19T13:01,OPEN LABEL TREATMENT
20230000011010023,RS2023,0.1938,RS2023,2023000001,PC,PT72H,72,HOUR 72,2001-01-22T13:01,27,PLASMA,2001-01-19T13:01,OPEN LABEL TREATMENT
20230000011010023,RS2023487A,1.2893,RS2023487A,2023000001,PC,PT72H,72,HOUR 72,2001-01-22T13:01,28,PLASMA,2001-01-19T13:01,OPEN LABEL TREATMENT
20230000011010023,RS2023,0.0669,RS2023,2023000001,PC,PT96H,96,HOUR 96,2001-01-23T13:01,29,PLASMA,2001-01-19T13:01,OPEN LABEL TREATMENT
20230000011010023,RS2023487A,0.474,RS2023487A,2023000001,PC,PT96H,96,HOUR 96,2001-01-23T13:01,30,PLASMA,2001-01-19T13:01,OPEN LABEL TREATMENT
20230000011010023,RS2023,0.011,RS2023,2023000001,PC,PT144H,144,HOUR 144,2001-01-25T13:01,31,PLASMA,2001-01-19T13:01,OPEN LABEL TREATMENT
20230000011010023,RS2023487A,0.0648,RS2023487A,2023000001,PC,PT144H,144,HOUR 144,2001-01-25T13:01,32,PLASMA,2001-01-19T13:01,OPEN LABEL TREATMENT
20230000011010023,RS2023,0.0038,RS2023,2023000001,PC,PT168H,168,HOUR 168,2001-01-26T13:01,33,PLASMA,2001-01-19T13:01,OPEN LABEL TREATMENT
20230000011010023,RS2023487A,0.024,RS2023487A,2023000001,PC,PT168H,168,HOUR 168,2001-01-26T13:01,34,PLASMA,2001-01-19T13:01,OPEN LABEL TREATMENT
20230000011010025,RS2023,0,RS2023,2023000001,PC,PT0H,0,PREDOSE,2001-01-20T10:12,1,PLASMA,2001-01-20T10:12,OPEN LABEL TREATMENT
20230000011010025,RS2023487A,0,RS2023487A,2023000001,PC,PT0H,0,PREDOSE,2001-01-20T10:12,2,PLASMA,2001-01-20T10:12,OPEN LABEL TREATMENT
20230000011010025,RS2023,45.0238,RS2023,2023000001,PC,PT0.5H,0.5,HOUR 0.5,2001-01-20T10:42,3,PLASMA,2001-01-20T10:12,OPEN LABEL TREATMENT
20230000011010025,RS2023487A,4.2747,RS2023487A,2023000001,PC,PT0.5H,0.5,HOUR 0.5,2001-01-20T10:42,4,PLASMA,2001-01-20T10:12,OPEN LABEL TREATMENT
20230000011010025,RS2023,162.3813,RS2023,2023000001,PC,PT1H,1,HOUR 1,2001-01-20T11:12,5,PLASMA,2001-01-20T10:12,OPEN LABEL TREATMENT
20230000011010025,RS2023487A,28.8916,RS2023487A,2023000001,PC,PT1H,1,HOUR 1,2001-01-20T11:12,6,PLASMA,2001-01-20T10:12,OPEN LABEL TREATMENT
20230000011010025,RS2023,288.5385,RS2023,2023000001,PC,PT1.5H,1.5,HOUR 1.5,2001-01-20T11:42,7,PLASMA,2001-01-20T10:12,OPEN LABEL TREATMENT
20230000011010025,RS2023487A,82.7907,RS2023487A,2023000001,PC,PT1.5H,1.5,HOUR 1.5,2001-01-20T11:42,8,PLASMA,2001-01-20T10:12,OPEN LABEL TREATMENT
20230000011010025,RS2023,436.249,RS2023,2023000001,PC,PT2H,2,HOUR 2,2001-01-20T12:12,9,PLASMA,2001-01-20T10:12,OPEN LABEL TREATMENT
20230000011010025,RS2023487A,167.3894,RS2023487A,2023000001,PC,PT2H,2,HOUR 2,2001-01-20T12:12,10,PLASMA,2001-01-20T10:12,OPEN LABEL TREATMENT
20230000011010025,RS2023,407.2371,RS2023,2023000001,PC,PT3H,3,HOUR 3,2001-01-20T13:12,11,PLASMA,2001-01-20T10:12,OPEN LABEL TREATMENT
20230000011010025,RS2023487A,379.8974,RS2023487A,2023000001,PC,PT3H,3,HOUR 3,2001-01-20T13:12,12,PLASMA,2001-01-20T10:12,OPEN LABEL TREATMENT
20230000011010025,RS2023,415.1061,RS2023,2023000001,PC,PT4H,4,HOUR 4,2001-01-20T14:12,13,PLASMA,2001-01-20T10:12,OPEN LABEL TREATMENT
20230000011010025,RS2023487A,554.5768,RS2023487A,2023000001,PC,PT4H,4,HOUR 4,2001-01-20T14:12,14,PLASMA,2001-01-20T10:12,OPEN LABEL TREATMENT
20230000011010025,RS2023,301.0667,RS2023,2023000001,PC,PT6H,6,HOUR 6,2001-01-20T16:12,15,PLASMA,2001-01-20T10:12,OPEN LABEL TREATMENT
20230000011010025,RS2023487A,703.3004,RS2023487A,2023000001,PC,PT6H,6,HOUR 6,2001-01-20T16:12,16,PLASMA,2001-01-20T10:12,OPEN LABEL TREATMENT
20230000011010025,RS2023,118.3148,RS2023,2023000001,PC,PT8H,8,HOUR 8,2001-01-20T18:12,17,PLASMA,2001-01-20T10:12,OPEN LABEL TREATMENT
20230000011010025,RS2023487A,673.7687,RS2023487A,2023000001,PC,PT8H,8,HOUR 8,2001-01-20T18:12,18,PLASMA,2001-01-20T10:12,OPEN LABEL TREATMENT
20230000011010025,RS2023,81.7213,RS2023,2023000001,PC,PT10H,10,HOUR 10,2001-01-20T20:12,19,PLASMA,2001-01-20T10:12,OPEN LABEL TREATMENT
20230000011010025,RS2023487A,576.4772,RS2023487A,2023000001,PC,PT10H,10,HOUR 10,2001-01-20T20:12,20,PLASMA,2001-01-20T10:12,OPEN LABEL TREATMENT
20230000011010025,RS2023,46.3435,RS2023,2023000001,PC,PT12H,12,HOUR 12,2001-01-20T22:12,21,PLASMA,2001-01-20T10:12,OPEN LABEL TREATMENT
20230000011010025,RS2023487A,468.7906,RS2023487A,2023000001,PC,PT12H,12,HOUR 12,2001-01-20T22:12,22,PLASMA,2001-01-20T10:12,OPEN LABEL TREATMENT
20230000011010025,RS2023,13.6137,RS2023,2023000001,PC,PT24H,24,HOUR 24,2001-01-21T10:12,23,PLASMA,2001-01-20T10:12,OPEN LABEL TREATMENT
20230000011010025,RS2023487A,119.3621,RS2023487A,2023000001,PC,PT24H,24,HOUR 24,2001-01-21T10:12,24,PLASMA,2001-01-20T10:12,OPEN LABEL TREATMENT
20230000011010025,RS2023,3.4033,RS2023,2023000001,PC,PT48H,48,HOUR 48,2001-01-22T10:12,25,PLASMA,2001-01-20T10:12,OPEN LABEL TREATMENT
20230000011010025,RS2023487A,17.8171,RS2023487A,2023000001,PC,PT48H,48,HOUR 48,2001-01-22T10:12,26,PLASMA,2001-01-20T10:12,OPEN LABEL TREATMENT
20230000011010025,RS2023,0.6548,RS2023,2023000001,PC,PT72H,72,HOUR 72,2001-01-23T10:12,27,PLASMA,2001-01-20T10:12,OPEN LABEL TREATMENT
20230000011010025,RS2023487A,4.2412,RS2023487A,2023000001,PC,PT72H,72,HOUR 72,2001-01-23T10:12,28,PLASMA,2001-01-20T10:12,OPEN LABEL TREATMENT
20230000011010025,RS2023,0.2323,RS2023,2023000001,PC,PT96H,96,HOUR 96,2001-01-24T10:12,29,PLASMA,2001-01-20T10:12,OPEN LABEL TREATMENT
20230000011010025,RS2023487A,1.0613,RS2023487A,2023000001,PC,PT96H,96,HOUR 96,2001-01-24T10:12,30,PLASMA,2001-01-20T10:12,OPEN LABEL TREATMENT
20230000011010025,RS2023,0.012,RS2023,2023000001,PC,PT144H,144,HOUR 144,2001-01-26T10:12,31,PLASMA,2001-01-20T10:12,OPEN LABEL TREATMENT
20230000011010025,RS2023487A,0.067,RS2023487A,2023000001,PC,PT144H,144,HOUR 144,2001-01-26T10:12,32,PLASMA,2001-01-20T10:12,OPEN LABEL TREATMENT
20230000011010025,RS2023,0.0033,RS2023,2023000001,PC,PT168H,168,HOUR 168,2001-01-27T10:12,33,PLASMA,2001-01-20T10:12,OPEN LABEL TREATMENT
20230000011010025,RS2023487A,0.0168,RS2023487A,2023000001,PC,PT168H,168,HOUR 168,2001-01-27T10:12,34,PLASMA,2001-01-20T10:12,OPEN LABEL TREATMENT
20230000011010026,RS2023,0,RS2023,2023000001,PC,PT0H,0,PREDOSE,2001-01-21T08:48,1,PLASMA,2001-01-21T08:48,OPEN LABEL TREATMENT
20230000011010026,RS2023487A,0,RS2023487A,2023000001,PC,PT0H,0,PREDOSE,2001-01-21T08:48,2,PLASMA,2001-01-21T08:48,OPEN LABEL TREATMENT
20230000011010026,RS2023,40.4615,RS2023,2023000001,PC,PT0.5H,0.5,HOUR 0.5,2001-01-21T09:18,3,PLASMA,2001-01-21T08:48,OPEN LABEL TREATMENT
20230000011010026,RS2023487A,16.1483,RS2023487A,2023000001,PC,PT0.5H,0.5,HOUR 0.5,2001-01-21T09:18,4,PLASMA,2001-01-21T08:48,OPEN LABEL TREATMENT
20230000011010026,RS2023,132.4972,RS2023,2023000001,PC,PT1H,1,HOUR 1,2001-01-21T09:48,5,PLASMA,2001-01-21T08:48,OPEN LABEL TREATMENT
20230000011010026,RS2023487A,107.0901,RS2023487A,2023000001,PC,PT1H,1,HOUR 1,2001-01-21T09:48,6,PLASMA,2001-01-21T08:48,OPEN LABEL TREATMENT
20230000011010026,RS2023,264.1051,RS2023,2023000001,PC,PT1.5H,1.5,HOUR 1.5,2001-01-21T10:18,7,PLASMA,2001-01-21T08:48,OPEN LABEL TREATMENT
20230000011010026,RS2023487A,301.2678,RS2023487A,2023000001,PC,PT1.5H,1.5,HOUR 1.5,2001-01-21T10:18,8,PLASMA,2001-01-21T08:48,OPEN LABEL TREATMENT
20230000011010026,RS2023,319.023,RS2023,2023000001,PC,PT2H,2,HOUR 2,2001-01-21T10:48,9,PLASMA,2001-01-21T08:48,OPEN LABEL TREATMENT
20230000011010026,RS2023487A,598.5001,RS2023487A,2023000001,PC,PT2H,2,HOUR 2,2001-01-21T10:48,10,PLASMA,2001-01-21T08:48,OPEN LABEL TREATMENT
20230000011010026,RS2023,413.2874,RS2023,2023000001,PC,PT3H,3,HOUR 3,2001-01-21T11:48,11,PLASMA,2001-01-21T08:48,OPEN LABEL TREATMENT
20230000011010026,RS2023487A,1375.225,RS2023487A,2023000001,PC,PT3H,3,HOUR 3,2001-01-21T11:48,12,PLASMA,2001-01-21T08:48,OPEN LABEL TREATMENT
20230000011010026,RS2023,325.5771,RS2023,2023000001,PC,PT4H,4,HOUR 4,2001-01-21T12:48,13,PLASMA,2001-01-21T08:48,OPEN LABEL TREATMENT
20230000011010026,RS2023487A,1999.3096,RS2023487A,2023000001,PC,PT4H,4,HOUR 4,2001-01-21T12:48,14,PLASMA,2001-01-21T08:48,OPEN LABEL TREATMENT
20230000011010026,RS2023,127.0516,RS2023,2023000001,PC,PT6H,6,HOUR 6,2001-01-21T14:48,15,PLASMA,2001-01-21T08:48,OPEN LABEL TREATMENT
20230000011010026,RS2023487A,2410.653,RS2023487A,2023000001,PC,PT6H,6,HOUR 6,2001-01-21T14:48,16,PLASMA,2001-01-21T08:48,OPEN LABEL TREATMENT
20230000011010026,RS2023,45.3231,RS2023,2023000001,PC,PT8H,8,HOUR 8,2001-01-21T16:48,17,PLASMA,2001-01-21T08:48,OPEN LABEL TREATMENT
20230000011010026,RS2023487A,2181.2712,RS2023487A,2023000001,PC,PT8H,8,HOUR 8,2001-01-21T16:48,18,PLASMA,2001-01-21T08:48,OPEN LABEL TREATMENT
20230000011010026,RS2023,15.0266,RS2023,2023000001,PC,PT10H,10,HOUR 10,2001-01-21T18:48,19,PLASMA,2001-01-21T08:48,OPEN LABEL TREATMENT
20230000011010026,RS2023487A,1780.1846,RS2023487A,2023000001,PC,PT10H,10,HOUR 10,2001-01-21T18:48,20,PLASMA,2001-01-21T08:48,OPEN LABEL TREATMENT
20230000011010026,RS2023,6.8213,RS2023,2023000001,PC,PT12H,12,HOUR 12,2001-01-21T20:48,21,PLASMA,2001-01-21T08:48,OPEN LABEL TREATMENT
20230000011010026,RS2023487A,1396.0063,RS2023487A,2023000001,PC,PT12H,12,HOUR 12,2001-01-21T20:48,22,PLASMA,2001-01-21T08:48,OPEN LABEL TREATMENT
20230000011010026,RS2023,1.5741,RS2023,2023000001,PC,PT24H,24,HOUR 24,2001-01-22T08:48,23,PLASMA,2001-01-21T08:48,OPEN LABEL TREATMENT
20230000011010026,RS2023487A,294.5719,RS2023487A,2023000001,PC,PT24H,24,HOUR 24,2001-01-22T08:48,24,PLASMA,2001-01-21T08:48,OPEN LABEL TREATMENT
20230000011010026,RS2023,0.8186,RS2023,2023000001,PC,PT48H,48,HOUR 48,2001-01-23T08:48,25,PLASMA,2001-01-21T08:48,OPEN LABEL TREATMENT
20230000011010026,RS2023487A,26.6833,RS2023487A,2023000001,PC,PT48H,48,HOUR 48,2001-01-23T08:48,26,PLASMA,2001-01-21T08:48,OPEN LABEL TREATMENT
20230000011010026,RS2023,0.3372,RS2023,2023000001,PC,PT72H,72,HOUR 72,2001-01-24T08:48,27,PLASMA,2001-01-21T08:48,OPEN LABEL TREATMENT
20230000011010026,RS2023487A,8.7584,RS2023487A,2023000001,PC,PT72H,72,HOUR 72,2001-01-24T08:48,28,PLASMA,2001-01-21T08:48,OPEN LABEL TREATMENT
20230000011010026,RS2023,0.1794,RS2023,2023000001,PC,PT96H,96,HOUR 96,2001-01-25T08:48,29,PLASMA,2001-01-21T08:48,OPEN LABEL TREATMENT
20230000011010026,RS2023487A,4.0754,RS2023487A,2023000001,PC,PT96H,96,HOUR 96,2001-01-25T08:48,30,PLASMA,2001-01-21T08:48,OPEN LABEL TREATMENT
20230000011010026,RS2023,0.0357,RS2023,2023000001,PC,PT144H,144,HOUR 144,2001-01-27T08:48,31,PLASMA,2001-01-21T08:48,OPEN LABEL TREATMENT
20230000011010026,RS2023487A,0.9441,RS2023487A,2023000001,PC,PT144H,144,HOUR 144,2001-01-27T08:48,32,PLASMA,2001-01-21T08:48,OPEN LABEL TREATMENT
20230000011010026,RS2023,0.0203,RS2023,2023000001,PC,PT168H,168,HOUR 168,2001-01-28T08:48,33,PLASMA,2001-01-21T08:48,OPEN LABEL TREATMENT
20230000011010026,RS2023487A,0.455,RS2023487A,2023000001,PC,PT168H,168,HOUR 168,2001-01-28T08:48,34,PLASMA,2001-01-21T08:48,OPEN LABEL TREATMENT
20230000011010027,RS2023,0,RS2023,2023000001,PC,PT0H,0,PREDOSE,2001-01-23T07:59,1,PLASMA,2001-01-23T07:59,OPEN LABEL TREATMENT
20230000011010027,RS2023487A,0,RS2023487A,2023000001,PC,PT0H,0,PREDOSE,2001-01-23T07:59,2,PLASMA,2001-01-23T07:59,OPEN LABEL TREATMENT
20230000011010027,RS2023,146.701,RS2023,2023000001,PC,PT0.5H,0.5,HOUR 0.5,2001-01-23T08:29,3,PLASMA,2001-01-23T07:59,OPEN LABEL TREATMENT
20230000011010027,RS2023487A,56.0434,RS2023487A,2023000001,PC,PT0.5H,0.5,HOUR 0.5,2001-01-23T08:29,4,PLASMA,2001-01-23T07:59,OPEN LABEL TREATMENT
20230000011010027,RS2023,475.9404,RS2023,2023000001,PC,PT1H,1,HOUR 1,2001-01-23T08:59,5,PLASMA,2001-01-23T07:59,OPEN LABEL TREATMENT
20230000011010027,RS2023487A,342.4546,RS2023487A,2023000001,PC,PT1H,1,HOUR 1,2001-01-23T08:59,6,PLASMA,2001-01-23T07:59,OPEN LABEL TREATMENT
20230000011010027,RS2023,526.2877,RS2023,2023000001,PC,PT1.5H,1.5,HOUR 1.5,2001-01-23T09:29,7,PLASMA,2001-01-23T07:59,OPEN LABEL TREATMENT
20230000011010027,RS2023487A,894.2043,RS2023487A,2023000001,PC,PT1.5H,1.5,HOUR 1.5,2001-01-23T09:29,8,PLASMA,2001-01-23T07:59,OPEN LABEL TREATMENT
20230000011010027,RS2023,805.2208,RS2023,2023000001,PC,PT2H,2,HOUR 2,2001-01-23T09:59,9,PLASMA,2001-01-23T07:59,OPEN LABEL TREATMENT
20230000011010027,RS2023487A,1602.4302,RS2023487A,2023000001,PC,PT2H,2,HOUR 2,2001-01-23T09:59,10,PLASMA,2001-01-23T07:59,OPEN LABEL TREATMENT
20230000011010027,RS2023,653.4875,RS2023,2023000001,PC,PT3H,3,HOUR 3,2001-01-23T10:59,11,PLASMA,2001-01-23T07:59,OPEN LABEL TREATMENT
20230000011010027,RS2023487A,2654.0892,RS2023487A,2023000001,PC,PT3H,3,HOUR 3,2001-01-23T10:59,12,PLASMA,2001-01-23T07:59,OPEN LABEL TREATMENT
20230000011010027,RS2023,378.9278,RS2023,2023000001,PC,PT4H,4,HOUR 4,2001-01-23T11:59,13,PLASMA,2001-01-23T07:59,OPEN LABEL TREATMENT
20230000011010027,RS2023487A,2992.0744,RS2023487A,2023000001,PC,PT4H,4,HOUR 4,2001-01-23T11:59,14,PLASMA,2001-01-23T07:59,OPEN LABEL TREATMENT
20230000011010027,RS2023,90.6539,RS2023,2023000001,PC,PT6H,6,HOUR 6,2001-01-23T13:59,15,PLASMA,2001-01-23T07:59,OPEN LABEL TREATMENT
20230000011010027,RS2023487A,2562.8515,RS2023487A,2023000001,PC,PT6H,6,HOUR 6,2001-01-23T13:59,16,PLASMA,2001-01-23T07:59,OPEN LABEL TREATMENT
20230000011010027,RS2023,30.8458,RS2023,2023000001,PC,PT8H,8,HOUR 8,2001-01-23T15:59,17,PLASMA,2001-01-23T07:59,OPEN LABEL TREATMENT
20230000011010027,RS2023487A,1839.0709,RS2023487A,2023000001,PC,PT8H,8,HOUR 8,2001-01-23T15:59,18,PLASMA,2001-01-23T07:59,OPEN LABEL TREATMENT
20230000011010027,RS2023,13.839,RS2023,2023000001,PC,PT10H,10,HOUR 10,2001-01-23T17:59,19,PLASMA,2001-01-23T07:59,OPEN LABEL TREATMENT
20230000011010027,RS2023487A,1257.0259,RS2023487A,2023000001,PC,PT10H,10,HOUR 10,2001-01-23T17:59,20,PLASMA,2001-01-23T07:59,OPEN LABEL TREATMENT
20230000011010027,RS2023,10.3949,RS2023,2023000001,PC,PT12H,12,HOUR 12,2001-01-23T19:59,21,PLASMA,2001-01-23T07:59,OPEN LABEL TREATMENT
20230000011010027,RS2023487A,851.3064,RS2023487A,2023000001,PC,PT12H,12,HOUR 12,2001-01-23T19:59,22,PLASMA,2001-01-23T07:59,OPEN LABEL TREATMENT
20230000011010027,RS2023,4.3143,RS2023,2023000001,PC,PT24H,24,HOUR 24,2001-01-24T07:59,23,PLASMA,2001-01-23T07:59,OPEN LABEL TREATMENT
20230000011010027,RS2023487A,111.1828,RS2023487A,2023000001,PC,PT24H,24,HOUR 24,2001-01-24T07:59,24,PLASMA,2001-01-23T07:59,OPEN LABEL TREATMENT
20230000011010027,RS2023,1.4766,RS2023,2023000001,PC,PT48H,48,HOUR 48,2001-01-25T07:59,25,PLASMA,2001-01-23T07:59,OPEN LABEL TREATMENT
20230000011010027,RS2023487A,14.9602,RS2023487A,2023000001,PC,PT48H,48,HOUR 48,2001-01-25T07:59,26,PLASMA,2001-01-23T07:59,OPEN LABEL TREATMENT
20230000011010027,RS2023,0.3438,RS2023,2023000001,PC,PT72H,72,HOUR 72,2001-01-26T07:59,27,PLASMA,2001-01-23T07:59,OPEN LABEL TREATMENT
20230000011010027,RS2023487A,3.7853,RS2023487A,2023000001,PC,PT72H,72,HOUR 72,2001-01-26T07:59,28,PLASMA,2001-01-23T07:59,OPEN LABEL TREATMENT
20230000011010027,RS2023,0.0803,RS2023,2023000001,PC,PT96H,96,HOUR 96,2001-01-27T07:59,29,PLASMA,2001-01-23T07:59,OPEN LABEL TREATMENT
20230000011010027,RS2023487A,0.9759,RS2023487A,2023000001,PC,PT96H,96,HOUR 96,2001-01-27T07:59,30,PLASMA,2001-01-23T07:59,OPEN LABEL TREATMENT
20230000011010027,RS2023,0.0046,RS2023,2023000001,PC,PT144H,144,HOUR 144,2001-01-29T07:59,31,PLASMA,2001-01-23T07:59,OPEN LABEL TREATMENT
20230000011010027,RS2023487A,0.0649,RS2023487A,2023000001,PC,PT144H,144,HOUR 144,2001-01-29T07:59,32,PLASMA,2001-01-23T07:59,OPEN LABEL TREATMENT
20230000011010027,RS2023,0.0015,RS2023,2023000001,PC,PT168H,168,HOUR 168,2001-01-30T07:59,33,PLASMA,2001-01-23T07:59,OPEN LABEL TREATMENT
20230000011010027,RS2023487A,0.0167,RS2023487A,2023000001,PC,PT168H,168,HOUR 168,2001-01-30T07:59,34,PLASMA,2001-01-23T07:59,OPEN LABEL TREATMENT
20230000011010028,RS2023,0,RS2023,2023000001,PC,PT0H,0,PREDOSE,2001-01-25T08:51,1,PLASMA,2001-01-25T08:51,OPEN LABEL TREATMENT
20230000011010028,RS2023487A,0,RS2023487A,2023000001,PC,PT0H,0,PREDOSE,2001-01-25T08:51,2,PLASMA,2001-01-25T08:51,OPEN LABEL TREATMENT
20230000011010028,RS2023,102.9921,RS2023,2023000001,PC,PT0.5H,0.5,HOUR 0.5,2001-01-25T09:21,3,PLASMA,2001-01-25T08:51,OPEN LABEL TREATMENT
20230000011010028,RS2023487A,25.4139,RS2023487A,2023000001,PC,PT0.5H,0.5,HOUR 0.5,2001-01-25T09:21,4,PLASMA,2001-01-25T08:51,OPEN LABEL TREATMENT
20230000011010028,RS2023,251.9385,RS2023,2023000001,PC,PT1H,1,HOUR 1,2001-01-25T09:51,5,PLASMA,2001-01-25T08:51,OPEN LABEL TREATMENT
20230000011010028,RS2023487A,168.0783,RS2023487A,2023000001,PC,PT1H,1,HOUR 1,2001-01-25T09:51,6,PLASMA,2001-01-25T08:51,OPEN LABEL TREATMENT
20230000011010028,RS2023,467.4754,RS2023,2023000001,PC,PT1.5H,1.5,HOUR 1.5,2001-01-25T10:21,7,PLASMA,2001-01-25T08:51,OPEN LABEL TREATMENT
20230000011010028,RS2023487A,471.4101,RS2023487A,2023000001,PC,PT1.5H,1.5,HOUR 1.5,2001-01-25T10:21,8,PLASMA,2001-01-25T08:51,OPEN LABEL TREATMENT
20230000011010028,RS2023,631.1357,RS2023,2023000001,PC,PT2H,2,HOUR 2,2001-01-25T10:51,9,PLASMA,2001-01-25T08:51,OPEN LABEL TREATMENT
20230000011010028,RS2023487A,925.3676,RS2023487A,2023000001,PC,PT2H,2,HOUR 2,2001-01-25T10:51,10,PLASMA,2001-01-25T08:51,OPEN LABEL TREATMENT
20230000011010028,RS2023,776.0527,RS2023,2023000001,PC,PT3H,3,HOUR 3,2001-01-25T11:51,11,PLASMA,2001-01-25T08:51,OPEN LABEL TREATMENT
20230000011010028,RS2023487A,1879.9215,RS2023487A,2023000001,PC,PT3H,3,HOUR 3,2001-01-25T11:51,12,PLASMA,2001-01-25T08:51,OPEN LABEL TREATMENT
20230000011010028,RS2023,676.0819,RS2023,2023000001,PC,PT4H,4,HOUR 4,2001-01-25T12:51,13,PLASMA,2001-01-25T08:51,OPEN LABEL TREATMENT
20230000011010028,RS2023487A,2504.7583,RS2023487A,2023000001,PC,PT4H,4,HOUR 4,2001-01-25T12:51,14,PLASMA,2001-01-25T08:51,OPEN LABEL TREATMENT
20230000011010028,RS2023,260.3259,RS2023,2023000001,PC,PT6H,6,HOUR 6,2001-01-25T14:51,15,PLASMA,2001-01-25T08:51,OPEN LABEL TREATMENT
20230000011010028,RS2023487A,2744.6724,RS2023487A,2023000001,PC,PT6H,6,HOUR 6,2001-01-25T14:51,16,PLASMA,2001-01-25T08:51,OPEN LABEL TREATMENT
20230000011010028,RS2023,100.9081,RS2023,2023000001,PC,PT8H,8,HOUR 8,2001-01-25T16:51,17,PLASMA,2001-01-25T08:51,OPEN LABEL TREATMENT
20230000011010028,RS2023487A,2333.5361,RS2023487A,2023000001,PC,PT8H,8,HOUR 8,2001-01-25T16:51,18,PLASMA,2001-01-25T08:51,OPEN LABEL TREATMENT
20230000011010028,RS2023,41.188,RS2023,2023000001,PC,PT10H,10,HOUR 10,2001-01-25T18:51,19,PLASMA,2001-01-25T08:51,OPEN LABEL TREATMENT
20230000011010028,RS2023487A,1807.7153,RS2023487A,2023000001,PC,PT10H,10,HOUR 10,2001-01-25T18:51,20,PLASMA,2001-01-25T08:51,OPEN LABEL TREATMENT
20230000011010028,RS2023,27.2855,RS2023,2023000001,PC,PT12H,12,HOUR 12,2001-01-25T20:51,21,PLASMA,2001-01-25T08:51,OPEN LABEL TREATMENT
20230000011010028,RS2023487A,1352.9831,RS2023487A,2023000001,PC,PT12H,12,HOUR 12,2001-01-25T20:51,22,PLASMA,2001-01-25T08:51,OPEN LABEL TREATMENT
20230000011010028,RS2023,9.7005,RS2023,2023000001,PC,PT24H,24,HOUR 24,2001-01-26T08:51,23,PLASMA,2001-01-25T08:51,OPEN LABEL TREATMENT
20230000011010028,RS2023487A,247.9799,RS2023487A,2023000001,PC,PT24H,24,HOUR 24,2001-01-26T08:51,24,PLASMA,2001-01-25T08:51,OPEN LABEL TREATMENT
20230000011010028,RS2023,1.9057,RS2023,2023000001,PC,PT48H,48,HOUR 48,2001-01-27T08:51,25,PLASMA,2001-01-25T08:51,OPEN LABEL TREATMENT
20230000011010028,RS2023487A,27.3567,RS2023487A,2023000001,PC,PT48H,48,HOUR 48,2001-01-27T08:51,26,PLASMA,2001-01-25T08:51,OPEN LABEL TREATMENT
20230000011010028,RS2023,0.3918,RS2023,2023000001,PC,PT72H,72,HOUR 72,2001-01-28T08:51,27,PLASMA,2001-01-25T08:51,OPEN LABEL TREATMENT
20230000011010028,RS2023487A,5.8376,RS2023487A,2023000001,PC,PT72H,72,HOUR 72,2001-01-28T08:51,28,PLASMA,2001-01-25T08:51,OPEN LABEL TREATMENT
20230000011010028,RS2023,0.0952,RS2023,2023000001,PC,PT96H,96,HOUR 96,2001-01-29T08:51,29,PLASMA,2001-01-25T08:51,OPEN LABEL TREATMENT
20230000011010028,RS2023487A,1.3287,RS2023487A,2023000001,PC,PT96H,96,HOUR 96,2001-01-29T08:51,30,PLASMA,2001-01-25T08:51,OPEN LABEL TREATMENT
20230000011010028,RS2023,0.0062,RS2023,2023000001,PC,PT144H,144,HOUR 144,2001-01-31T08:51,31,PLASMA,2001-01-25T08:51,OPEN LABEL TREATMENT
20230000011010028,RS2023487A,0.0694,RS2023487A,2023000001,PC,PT144H,144,HOUR 144,2001-01-31T08:51,32,PLASMA,2001-01-25T08:51,OPEN LABEL TREATMENT
20230000011010028,RS2023,0.0011,RS2023,2023000001,PC,PT168H,168,HOUR 168,2001-02-01T08:51,33,PLASMA,2001-01-25T08:51,OPEN LABEL TREATMENT
20230000011010028,RS2023487A,0.0159,RS2023487A,2023000001,PC,PT168H,168,HOUR 168,2001-02-01T08:51,34,PLASMA,2001-01-25T08:51,OPEN LABEL TREATMENT
20230000011010029,RS2023,0,RS2023,2023000001,PC,PT0H,0,PREDOSE,2001-01-26T10:21,1,PLASMA,2001-01-26T10:21,OPEN LABEL TREATMENT
20230000011010029,RS2023487A,0,RS2023487A,2023000001,PC,PT0H,0,PREDOSE,2001-01-26T10:21,2,PLASMA,2001-01-26T10:21,OPEN LABEL TREATMENT
20230000011010029,RS2023,136.4942,RS2023,2023000001,PC,PT0.5H,0.5,HOUR 0.5,2001-01-26T10:51,3,PLASMA,2001-01-26T10:21,OPEN LABEL TREATMENT
20230000011010029,RS2023487A,42.4094,RS2023487A,2023000001,PC,PT0.5H,0.5,HOUR 0.5,2001-01-26T10:51,4,PLASMA,2001-01-26T10:21,OPEN LABEL TREATMENT
20230000011010029,RS2023,386.6308,RS2023,2023000001,PC,PT1H,1,HOUR 1,2001-01-26T11:21,5,PLASMA,2001-01-26T10:21,OPEN LABEL TREATMENT
20230000011010029,RS2023487A,270.3301,RS2023487A,2023000001,PC,PT1H,1,HOUR 1,2001-01-26T11:21,6,PLASMA,2001-01-26T10:21,OPEN LABEL TREATMENT
20230000011010029,RS2023,689.613,RS2023,2023000001,PC,PT1.5H,1.5,HOUR 1.5,2001-01-26T11:51,7,PLASMA,2001-01-26T10:21,OPEN LABEL TREATMENT
20230000011010029,RS2023487A,725.3641,RS2023487A,2023000001,PC,PT1.5H,1.5,HOUR 1.5,2001-01-26T11:51,8,PLASMA,2001-01-26T10:21,OPEN LABEL TREATMENT
20230000011010029,RS2023,768.6622,RS2023,2023000001,PC,PT2H,2,HOUR 2,2001-01-26T12:21,9,PLASMA,2001-01-26T10:21,OPEN LABEL TREATMENT
20230000011010029,RS2023487A,1269.7711,RS2023487A,2023000001,PC,PT2H,2,HOUR 2,2001-01-26T12:21,10,PLASMA,2001-01-26T10:21,OPEN LABEL TREATMENT
20230000011010029,RS2023,505.7821,RS2023,2023000001,PC,PT3H,3,HOUR 3,2001-01-26T13:21,11,PLASMA,2001-01-26T10:21,OPEN LABEL TREATMENT
20230000011010029,RS2023487A,2091.8309,RS2023487A,2023000001,PC,PT3H,3,HOUR 3,2001-01-26T13:21,12,PLASMA,2001-01-26T10:21,OPEN LABEL TREATMENT
20230000011010029,RS2023,373.6867,RS2023,2023000001,PC,PT4H,4,HOUR 4,2001-01-26T14:21,13,PLASMA,2001-01-26T10:21,OPEN LABEL TREATMENT
20230000011010029,RS2023487A,2401.1461,RS2023487A,2023000001,PC,PT4H,4,HOUR 4,2001-01-26T14:21,14,PLASMA,2001-01-26T10:21,OPEN LABEL TREATMENT
20230000011010029,RS2023,114.4721,RS2023,2023000001,PC,PT6H,6,HOUR 6,2001-01-26T16:21,15,PLASMA,2001-01-26T10:21,OPEN LABEL TREATMENT
20230000011010029,RS2023487A,2098.7431,RS2023487A,2023000001,PC,PT6H,6,HOUR 6,2001-01-26T16:21,16,PLASMA,2001-01-26T10:21,OPEN LABEL TREATMENT
20230000011010029,RS2023,46.2968,RS2023,2023000001,PC,PT8H,8,HOUR 8,2001-01-26T18:21,17,PLASMA,2001-01-26T10:21,OPEN LABEL TREATMENT
20230000011010029,RS2023487A,1487.1958,RS2023487A,2023000001,PC,PT8H,8,HOUR 8,2001-01-26T18:21,18,PLASMA,2001-01-26T10:21,OPEN LABEL TREATMENT
20230000011010029,RS2023,18.0716,RS2023,2023000001,PC,PT10H,10,HOUR 10,2001-01-26T20:21,19,PLASMA,2001-01-26T10:21,OPEN LABEL TREATMENT
20230000011010029,RS2023487A,985.2445,RS2023487A,2023000001,PC,PT10H,10,HOUR 10,2001-01-26T20:21,20,PLASMA,2001-01-26T10:21,OPEN LABEL TREATMENT
20230000011010029,RS2023,13.7594,RS2023,2023000001,PC,PT12H,12,HOUR 12,2001-01-26T22:21,21,PLASMA,2001-01-26T10:21,OPEN LABEL TREATMENT
20230000011010029,RS2023487A,643.1853,RS2023487A,2023000001,PC,PT12H,12,HOUR 12,2001-01-26T22:21,22,PLASMA,2001-01-26T10:21,OPEN LABEL TREATMENT
20230000011010029,RS2023,5.0335,RS2023,2023000001,PC,PT24H,24,HOUR 24,2001-01-27T10:21,23,PLASMA,2001-01-26T10:21,OPEN LABEL TREATMENT
20230000011010029,RS2023487A,77.0367,RS2023487A,2023000001,PC,PT24H,24,HOUR 24,2001-01-27T10:21,24,PLASMA,2001-01-26T10:21,OPEN LABEL TREATMENT
20230000011010029,RS2023,0.7645,RS2023,2023000001,PC,PT48H,48,HOUR 48,2001-01-28T10:21,25,PLASMA,2001-01-26T10:21,OPEN LABEL TREATMENT
20230000011010029,RS2023487A,9.1496,RS2023487A,2023000001,PC,PT48H,48,HOUR 48,2001-01-28T10:21,26,PLASMA,2001-01-26T10:21,OPEN LABEL TREATMENT
20230000011010029,RS2023,0.15,RS2023,2023000001,PC,PT72H,72,HOUR 72,2001-01-29T10:21,27,PLASMA,2001-01-26T10:21,OPEN LABEL TREATMENT
20230000011010029,RS2023487A,1.6212,RS2023487A,2023000001,PC,PT72H,72,HOUR 72,2001-01-29T10:21,28,PLASMA,2001-01-26T10:21,OPEN LABEL TREATMENT
20230000011010029,RS2023,0.0238,RS2023,2023000001,PC,PT96H,96,HOUR 96,2001-01-30T10:21,29,PLASMA,2001-01-26T10:21,OPEN LABEL TREATMENT
20230000011010029,RS2023487A,0.2892,RS2023487A,2023000001,PC,PT96H,96,HOUR 96,2001-01-30T10:21,30,PLASMA,2001-01-26T10:21,OPEN LABEL TREATMENT
20230000011010029,RS2023,9e-4,RS2023,2023000001,PC,PT144H,144,HOUR 144,2001-02-01T10:21,31,PLASMA,2001-01-26T10:21,OPEN LABEL TREATMENT
20230000011010029,RS2023487A,0.0092,RS2023487A,2023000001,PC,PT144H,144,HOUR 144,2001-02-01T10:21,32,PLASMA,2001-01-26T10:21,OPEN LABEL TREATMENT
20230000011010029,RS2023,1e-4,RS2023,2023000001,PC,PT168H,168,HOUR 168,2001-02-02T10:21,33,PLASMA,2001-01-26T10:21,OPEN LABEL TREATMENT
20230000011010029,RS2023487A,0.0016,RS2023487A,2023000001,PC,PT168H,168,HOUR 168,2001-02-02T10:21,34,PLASMA,2001-01-26T10:21,OPEN LABEL TREATMENT
20230000011010030,RS2023,0,RS2023,2023000001,PC,PT0H,0,PREDOSE,2001-01-25T09:29,1,PLASMA,2001-01-25T09:29,OPEN LABEL TREATMENT
20230000011010030,RS2023487A,0,RS2023487A,2023000001,PC,PT0H,0,PREDOSE,2001-01-25T09:29,2,PLASMA,2001-01-25T09:29,OPEN LABEL TREATMENT
20230000011010030,RS2023,154.9438,RS2023,2023000001,PC,PT0.5H,0.5,HOUR 0.5,2001-01-25T09:59,3,PLASMA,2001-01-25T09:29,OPEN LABEL TREATMENT
20230000011010030,RS2023487A,54.5218,RS2023487A,2023000001,PC,PT0.5H,0.5,HOUR 0.5,2001-01-25T09:59,4,PLASMA,2001-01-25T09:29,OPEN LABEL TREATMENT
20230000011010030,RS2023,378.5597,RS2023,2023000001,PC,PT1H,1,HOUR 1,2001-01-25T10:29,5,PLASMA,2001-01-25T09:29,OPEN LABEL TREATMENT
20230000011010030,RS2023487A,341.2443,RS2023487A,2023000001,PC,PT1H,1,HOUR 1,2001-01-25T10:29,6,PLASMA,2001-01-25T09:29,OPEN LABEL TREATMENT
20230000011010030,RS2023,745.7426,RS2023,2023000001,PC,PT1.5H,1.5,HOUR 1.5,2001-01-25T10:59,7,PLASMA,2001-01-25T09:29,OPEN LABEL TREATMENT
20230000011010030,RS2023487A,909.9456,RS2023487A,2023000001,PC,PT1.5H,1.5,HOUR 1.5,2001-01-25T10:59,8,PLASMA,2001-01-25T09:29,OPEN LABEL TREATMENT
20230000011010030,RS2023,1041.2808,RS2023,2023000001,PC,PT2H,2,HOUR 2,2001-01-25T11:29,9,PLASMA,2001-01-25T09:29,OPEN LABEL TREATMENT
20230000011010030,RS2023487A,1720.6734,RS2023487A,2023000001,PC,PT2H,2,HOUR 2,2001-01-25T11:29,10,PLASMA,2001-01-25T09:29,OPEN LABEL TREATMENT
20230000011010030,RS2023,1374.8322,RS2023,2023000001,PC,PT3H,3,HOUR 3,2001-01-25T12:29,11,PLASMA,2001-01-25T09:29,OPEN LABEL TREATMENT
20230000011010030,RS2023487A,3795.4575,RS2023487A,2023000001,PC,PT3H,3,HOUR 3,2001-01-25T12:29,12,PLASMA,2001-01-25T09:29,OPEN LABEL TREATMENT
20230000011010030,RS2023,978.6441,RS2023,2023000001,PC,PT4H,4,HOUR 4,2001-01-25T13:29,13,PLASMA,2001-01-25T09:29,OPEN LABEL TREATMENT
20230000011010030,RS2023487A,5554.3763,RS2023487A,2023000001,PC,PT4H,4,HOUR 4,2001-01-25T13:29,14,PLASMA,2001-01-25T09:29,OPEN LABEL TREATMENT
20230000011010030,RS2023,332.0399,RS2023,2023000001,PC,PT6H,6,HOUR 6,2001-01-25T15:29,15,PLASMA,2001-01-25T09:29,OPEN LABEL TREATMENT
20230000011010030,RS2023487A,6096.4373,RS2023487A,2023000001,PC,PT6H,6,HOUR 6,2001-01-25T15:29,16,PLASMA,2001-01-25T09:29,OPEN LABEL TREATMENT
20230000011010030,RS2023,79.2594,RS2023,2023000001,PC,PT8H,8,HOUR 8,2001-01-25T17:29,17,PLASMA,2001-01-25T09:29,OPEN LABEL TREATMENT
20230000011010030,RS2023487A,4938.8602,RS2023487A,2023000001,PC,PT8H,8,HOUR 8,2001-01-25T17:29,18,PLASMA,2001-01-25T09:29,OPEN LABEL TREATMENT
20230000011010030,RS2023,23.6277,RS2023,2023000001,PC,PT10H,10,HOUR 10,2001-01-25T19:29,19,PLASMA,2001-01-25T09:29,OPEN LABEL TREATMENT
20230000011010030,RS2023487A,3687.5895,RS2023487A,2023000001,PC,PT10H,10,HOUR 10,2001-01-25T19:29,20,PLASMA,2001-01-25T09:29,OPEN LABEL TREATMENT
20230000011010030,RS2023,13.7484,RS2023,2023000001,PC,PT12H,12,HOUR 12,2001-01-25T21:29,21,PLASMA,2001-01-25T09:29,OPEN LABEL TREATMENT
20230000011010030,RS2023487A,2696.8781,RS2023487A,2023000001,PC,PT12H,12,HOUR 12,2001-01-25T21:29,22,PLASMA,2001-01-25T09:29,OPEN LABEL TREATMENT
20230000011010030,RS2023,5.3318,RS2023,2023000001,PC,PT24H,24,HOUR 24,2001-01-26T09:29,23,PLASMA,2001-01-25T09:29,OPEN LABEL TREATMENT
20230000011010030,RS2023487A,434.0482,RS2023487A,2023000001,PC,PT24H,24,HOUR 24,2001-01-26T09:29,24,PLASMA,2001-01-25T09:29,OPEN LABEL TREATMENT
20230000011010030,RS2023,1.7397,RS2023,2023000001,PC,PT48H,48,HOUR 48,2001-01-27T09:29,25,PLASMA,2001-01-25T09:29,OPEN LABEL TREATMENT
20230000011010030,RS2023487A,33.1255,RS2023487A,2023000001,PC,PT48H,48,HOUR 48,2001-01-27T09:29,26,PLASMA,2001-01-25T09:29,OPEN LABEL TREATMENT
20230000011010030,RS2023,0.3941,RS2023,2023000001,PC,PT72H,72,HOUR 72,2001-01-28T09:29,27,PLASMA,2001-01-25T09:29,OPEN LABEL TREATMENT
20230000011010030,RS2023487A,7.6377,RS2023487A,2023000001,PC,PT72H,72,HOUR 72,2001-01-28T09:29,28,PLASMA,2001-01-25T09:29,OPEN LABEL TREATMENT
20230000011010030,RS2023,0.1067,RS2023,2023000001,PC,PT96H,96,HOUR 96,2001-01-29T09:29,29,PLASMA,2001-01-25T09:29,OPEN LABEL TREATMENT
20230000011010030,RS2023487A,2.092,RS2023487A,2023000001,PC,PT96H,96,HOUR 96,2001-01-29T09:29,30,PLASMA,2001-01-25T09:29,OPEN LABEL TREATMENT
20230000011010030,RS2023,0.008,RS2023,2023000001,PC,PT144H,144,HOUR 144,2001-01-31T09:29,31,PLASMA,2001-01-25T09:29,OPEN LABEL TREATMENT
20230000011010030,RS2023487A,0.161,RS2023487A,2023000001,PC,PT144H,144,HOUR 144,2001-01-31T09:29,32,PLASMA,2001-01-25T09:29,OPEN LABEL TREATMENT
20230000011010030,RS2023,0.0024,RS2023,2023000001,PC,PT168H,168,HOUR 168,2001-02-01T09:29,33,PLASMA,2001-01-25T09:29,OPEN LABEL TREATMENT
20230000011010030,RS2023487A,0.0447,RS2023487A,2023000001,PC,PT168H,168,HOUR 168,2001-02-01T09:29,34,PLASMA,2001-01-25T09:29,OPEN LABEL TREATMENT
20230000011010032,RS2023,0,RS2023,2023000001,PC,PT0H,0,PREDOSE,2001-01-26T09:48,1,PLASMA,2001-01-26T09:48,OPEN LABEL TREATMENT
20230000011010032,RS2023487A,0,RS2023487A,2023000001,PC,PT0H,0,PREDOSE,2001-01-26T09:48,2,PLASMA,2001-01-26T09:48,OPEN LABEL TREATMENT
20230000011010032,RS2023,220.5506,RS2023,2023000001,PC,PT0.5H,0.5,HOUR 0.5,2001-01-26T10:18,3,PLASMA,2001-01-26T09:48,OPEN LABEL TREATMENT
20230000011010032,RS2023487A,61.4568,RS2023487A,2023000001,PC,PT0.5H,0.5,HOUR 0.5,2001-01-26T10:18,4,PLASMA,2001-01-26T09:48,OPEN LABEL TREATMENT
20230000011010032,RS2023,764.827,RS2023,2023000001,PC,PT1H,1,HOUR 1,2001-01-26T10:48,5,PLASMA,2001-01-26T09:48,OPEN LABEL TREATMENT
20230000011010032,RS2023487A,378.2731,RS2023487A,2023000001,PC,PT1H,1,HOUR 1,2001-01-26T10:48,6,PLASMA,2001-01-26T09:48,OPEN LABEL TREATMENT
20230000011010032,RS2023,1465.4738,RS2023,2023000001,PC,PT1.5H,1.5,HOUR 1.5,2001-01-26T11:18,7,PLASMA,2001-01-26T09:48,OPEN LABEL TREATMENT
20230000011010032,RS2023487A,988.8167,RS2023487A,2023000001,PC,PT1.5H,1.5,HOUR 1.5,2001-01-26T11:18,8,PLASMA,2001-01-26T09:48,OPEN LABEL TREATMENT
20230000011010032,RS2023,1518.0196,RS2023,2023000001,PC,PT2H,2,HOUR 2,2001-01-26T11:48,9,PLASMA,2001-01-26T09:48,OPEN LABEL TREATMENT
20230000011010032,RS2023487A,1823.7138,RS2023487A,2023000001,PC,PT2H,2,HOUR 2,2001-01-26T11:48,10,PLASMA,2001-01-26T09:48,OPEN LABEL TREATMENT
20230000011010032,RS2023,1540.84,RS2023,2023000001,PC,PT3H,3,HOUR 3,2001-01-26T12:48,11,PLASMA,2001-01-26T09:48,OPEN LABEL TREATMENT
20230000011010032,RS2023487A,3250.8573,RS2023487A,2023000001,PC,PT3H,3,HOUR 3,2001-01-26T12:48,12,PLASMA,2001-01-26T09:48,OPEN LABEL TREATMENT
20230000011010032,RS2023,1092.6181,RS2023,2023000001,PC,PT4H,4,HOUR 4,2001-01-26T13:48,13,PLASMA,2001-01-26T09:48,OPEN LABEL TREATMENT
20230000011010032,RS2023487A,3612.1604,RS2023487A,2023000001,PC,PT4H,4,HOUR 4,2001-01-26T13:48,14,PLASMA,2001-01-26T09:48,OPEN LABEL TREATMENT
20230000011010032,RS2023,314.8294,RS2023,2023000001,PC,PT6H,6,HOUR 6,2001-01-26T15:48,15,PLASMA,2001-01-26T09:48,OPEN LABEL TREATMENT
20230000011010032,RS2023487A,2569.5481,RS2023487A,2023000001,PC,PT6H,6,HOUR 6,2001-01-26T15:48,16,PLASMA,2001-01-26T09:48,OPEN LABEL TREATMENT
20230000011010032,RS2023,100.7588,RS2023,2023000001,PC,PT8H,8,HOUR 8,2001-01-26T17:48,17,PLASMA,2001-01-26T09:48,OPEN LABEL TREATMENT
20230000011010032,RS2023487A,1355.5251,RS2023487A,2023000001,PC,PT8H,8,HOUR 8,2001-01-26T17:48,18,PLASMA,2001-01-26T09:48,OPEN LABEL TREATMENT
20230000011010032,RS2023,30.8094,RS2023,2023000001,PC,PT10H,10,HOUR 10,2001-01-26T19:48,19,PLASMA,2001-01-26T09:48,OPEN LABEL TREATMENT
20230000011010032,RS2023487A,642.8347,RS2023487A,2023000001,PC,PT10H,10,HOUR 10,2001-01-26T19:48,20,PLASMA,2001-01-26T09:48,OPEN LABEL TREATMENT
20230000011010032,RS2023,16.5173,RS2023,2023000001,PC,PT12H,12,HOUR 12,2001-01-26T21:48,21,PLASMA,2001-01-26T09:48,OPEN LABEL TREATMENT
20230000011010032,RS2023487A,302.1399,RS2023487A,2023000001,PC,PT12H,12,HOUR 12,2001-01-26T21:48,22,PLASMA,2001-01-26T09:48,OPEN LABEL TREATMENT
20230000011010032,RS2023,8.4309,RS2023,2023000001,PC,PT24H,24,HOUR 24,2001-01-27T09:48,23,PLASMA,2001-01-26T09:48,OPEN LABEL TREATMENT
20230000011010032,RS2023487A,33.3175,RS2023487A,2023000001,PC,PT24H,24,HOUR 24,2001-01-27T09:48,24,PLASMA,2001-01-26T09:48,OPEN LABEL TREATMENT
20230000011010032,RS2023,2.658,RS2023,2023000001,PC,PT48H,48,HOUR 48,2001-01-28T09:48,25,PLASMA,2001-01-26T09:48,OPEN LABEL TREATMENT
20230000011010032,RS2023487A,9.5341,RS2023487A,2023000001,PC,PT48H,48,HOUR 48,2001-01-28T09:48,26,PLASMA,2001-01-26T09:48,OPEN LABEL TREATMENT
20230000011010032,RS2023,0.7854,RS2023,2023000001,PC,PT72H,72,HOUR 72,2001-01-29T09:48,27,PLASMA,2001-01-26T09:48,OPEN LABEL TREATMENT
20230000011010032,RS2023487A,2.8055,RS2023487A,2023000001,PC,PT72H,72,HOUR 72,2001-01-29T09:48,28,PLASMA,2001-01-26T09:48,OPEN LABEL TREATMENT
20230000011010032,RS2023,0.241,RS2023,2023000001,PC,PT96H,96,HOUR 96,2001-01-30T09:48,29,PLASMA,2001-01-26T09:48,OPEN LABEL TREATMENT
20230000011010032,RS2023487A,0.8256,RS2023487A,2023000001,PC,PT96H,96,HOUR 96,2001-01-30T09:48,30,PLASMA,2001-01-26T09:48,OPEN LABEL TREATMENT
20230000011010032,RS2023,0.0203,RS2023,2023000001,PC,PT144H,144,HOUR 144,2001-02-01T09:48,31,PLASMA,2001-01-26T09:48,OPEN LABEL TREATMENT
20230000011010032,RS2023487A,0.0715,RS2023487A,2023000001,PC,PT144H,144,HOUR 144,2001-02-01T09:48,32,PLASMA,2001-01-26T09:48,OPEN LABEL TREATMENT
20230000011010032,RS2023,0.0048,RS2023,2023000001,PC,PT168H,168,HOUR 168,2001-02-02T09:48,33,PLASMA,2001-01-26T09:48,OPEN LABEL TREATMENT
20230000011010032,RS2023487A,0.021,RS2023487A,2023000001,PC,PT168H,168,HOUR 168,2001-02-02T09:48,34,PLASMA,2001-01-26T09:48,OPEN LABEL TREATMENT
20230000011010033,RS2023,0,RS2023,2023000001,PC,PT0H,0,PREDOSE,2001-01-28T09:34,1,PLASMA,2001-01-28T09:34,OPEN LABEL TREATMENT
20230000011010033,RS2023487A,0,RS2023487A,2023000001,PC,PT0H,0,PREDOSE,2001-01-28T09:34,2,PLASMA,2001-01-28T09:34,OPEN LABEL TREATMENT
20230000011010033,RS2023,312.2501,RS2023,2023000001,PC,PT0.5H,0.5,HOUR 0.5,2001-01-28T10:04,3,PLASMA,2001-01-28T09:34,OPEN LABEL TREATMENT
20230000011010033,RS2023487A,94.8999,RS2023487A,2023000001,PC,PT0.5H,0.5,HOUR 0.5,2001-01-28T10:04,4,PLASMA,2001-01-28T09:34,OPEN LABEL TREATMENT
20230000011010033,RS2023,1031.7133,RS2023,2023000001,PC,PT1H,1,HOUR 1,2001-01-28T10:34,5,PLASMA,2001-01-28T09:34,OPEN LABEL TREATMENT
20230000011010033,RS2023487A,636.1926,RS2023487A,2023000001,PC,PT1H,1,HOUR 1,2001-01-28T10:34,6,PLASMA,2001-01-28T09:34,OPEN LABEL TREATMENT
20230000011010033,RS2023,1725.5927,RS2023,2023000001,PC,PT1.5H,1.5,HOUR 1.5,2001-01-28T11:04,7,PLASMA,2001-01-28T09:34,OPEN LABEL TREATMENT
20230000011010033,RS2023487A,1805.6956,RS2023487A,2023000001,PC,PT1.5H,1.5,HOUR 1.5,2001-01-28T11:04,8,PLASMA,2001-01-28T09:34,OPEN LABEL TREATMENT
20230000011010033,RS2023,2116.1627,RS2023,2023000001,PC,PT2H,2,HOUR 2,2001-01-28T11:34,9,PLASMA,2001-01-28T09:34,OPEN LABEL TREATMENT
20230000011010033,RS2023487A,3447.4327,RS2023487A,2023000001,PC,PT2H,2,HOUR 2,2001-01-28T11:34,10,PLASMA,2001-01-28T09:34,OPEN LABEL TREATMENT
20230000011010033,RS2023,2026.3819,RS2023,2023000001,PC,PT3H,3,HOUR 3,2001-01-28T12:34,11,PLASMA,2001-01-28T09:34,OPEN LABEL TREATMENT
20230000011010033,RS2023487A,6659.3346,RS2023487A,2023000001,PC,PT3H,3,HOUR 3,2001-01-28T12:34,12,PLASMA,2001-01-28T09:34,OPEN LABEL TREATMENT
20230000011010033,RS2023,1703.8989,RS2023,2023000001,PC,PT4H,4,HOUR 4,2001-01-28T13:34,13,PLASMA,2001-01-28T09:34,OPEN LABEL TREATMENT
20230000011010033,RS2023487A,8782.6821,RS2023487A,2023000001,PC,PT4H,4,HOUR 4,2001-01-28T13:34,14,PLASMA,2001-01-28T09:34,OPEN LABEL TREATMENT
20230000011010033,RS2023,676.7259,RS2023,2023000001,PC,PT6H,6,HOUR 6,2001-01-28T15:34,15,PLASMA,2001-01-28T09:34,OPEN LABEL TREATMENT
20230000011010033,RS2023487A,9757.0517,RS2023487A,2023000001,PC,PT6H,6,HOUR 6,2001-01-28T15:34,16,PLASMA,2001-01-28T09:34,OPEN LABEL TREATMENT
20230000011010033,RS2023,329.6192,RS2023,2023000001,PC,PT8H,8,HOUR 8,2001-01-28T17:34,17,PLASMA,2001-01-28T09:34,OPEN LABEL TREATMENT
20230000011010033,RS2023487A,8442.6965,RS2023487A,2023000001,PC,PT8H,8,HOUR 8,2001-01-28T17:34,18,PLASMA,2001-01-28T09:34,OPEN LABEL TREATMENT
20230000011010033,RS2023,145.9773,RS2023,2023000001,PC,PT10H,10,HOUR 10,2001-01-28T19:34,19,PLASMA,2001-01-28T09:34,OPEN LABEL TREATMENT
20230000011010033,RS2023487A,6597.697,RS2023487A,2023000001,PC,PT10H,10,HOUR 10,2001-01-28T19:34,20,PLASMA,2001-01-28T09:34,OPEN LABEL TREATMENT
20230000011010033,RS2023,76.354,RS2023,2023000001,PC,PT12H,12,HOUR 12,2001-01-28T21:34,21,PLASMA,2001-01-28T09:34,OPEN LABEL TREATMENT
20230000011010033,RS2023487A,4929.4054,RS2023487A,2023000001,PC,PT12H,12,HOUR 12,2001-01-28T21:34,22,PLASMA,2001-01-28T09:34,OPEN LABEL TREATMENT
20230000011010033,RS2023,15.5586,RS2023,2023000001,PC,PT24H,24,HOUR 24,2001-01-29T09:34,23,PLASMA,2001-01-28T09:34,OPEN LABEL TREATMENT
20230000011010033,RS2023487A,790.809,RS2023487A,2023000001,PC,PT24H,24,HOUR 24,2001-01-29T09:34,24,PLASMA,2001-01-28T09:34,OPEN LABEL TREATMENT
20230000011010033,RS2023,5.8082,RS2023,2023000001,PC,PT48H,48,HOUR 48,2001-01-30T09:34,25,PLASMA,2001-01-28T09:34,OPEN LABEL TREATMENT
20230000011010033,RS2023487A,96.2035,RS2023487A,2023000001,PC,PT48H,48,HOUR 48,2001-01-30T09:34,26,PLASMA,2001-01-28T09:34,OPEN LABEL TREATMENT
20230000011010033,RS2023,2.322,RS2023,2023000001,PC,PT72H,72,HOUR 72,2001-01-31T09:34,27,PLASMA,2001-01-28T09:34,OPEN LABEL TREATMENT
20230000011010033,RS2023487A,36.0876,RS2023487A,2023000001,PC,PT72H,72,HOUR 72,2001-01-31T09:34,28,PLASMA,2001-01-28T09:34,OPEN LABEL TREATMENT
20230000011010033,RS2023,1.0895,RS2023,2023000001,PC,PT96H,96,HOUR 96,2001-02-01T09:34,29,PLASMA,2001-01-28T09:34,OPEN LABEL TREATMENT
20230000011010033,RS2023487A,14.7098,RS2023487A,2023000001,PC,PT96H,96,HOUR 96,2001-02-01T09:34,30,PLASMA,2001-01-28T09:34,OPEN LABEL TREATMENT
20230000011010033,RS2023,0.2013,RS2023,2023000001,PC,PT144H,144,HOUR 144,2001-02-03T09:34,31,PLASMA,2001-01-28T09:34,OPEN LABEL TREATMENT
20230000011010033,RS2023487A,2.4592,RS2023487A,2023000001,PC,PT144H,144,HOUR 144,2001-02-03T09:34,32,PLASMA,2001-01-28T09:34,OPEN LABEL TREATMENT
20230000011010033,RS2023,0.0639,RS2023,2023000001,PC,PT168H,168,HOUR 168,2001-02-04T09:34,33,PLASMA,2001-01-28T09:34,OPEN LABEL TREATMENT
20230000011010033,RS2023487A,1.0056,RS2023487A,2023000001,PC,PT168H,168,HOUR 168,2001-02-04T09:34,34,PLASMA,2001-01-28T09:34,OPEN LABEL TREATMENT
20230000011010034,RS2023,0,RS2023,2023000001,PC,PT0H,0,PREDOSE,2001-01-30T10:10,1,PLASMA,2001-01-30T10:10,OPEN LABEL TREATMENT
20230000011010034,RS2023487A,0,RS2023487A,2023000001,PC,PT0H,0,PREDOSE,2001-01-30T10:10,2,PLASMA,2001-01-30T10:10,OPEN LABEL TREATMENT
20230000011010034,RS2023,287.2986,RS2023,2023000001,PC,PT0.5H,0.5,HOUR 0.5,2001-01-30T10:40,3,PLASMA,2001-01-30T10:10,OPEN LABEL TREATMENT
20230000011010034,RS2023487A,85.9165,RS2023487A,2023000001,PC,PT0.5H,0.5,HOUR 0.5,2001-01-30T10:40,4,PLASMA,2001-01-30T10:10,OPEN LABEL TREATMENT
20230000011010034,RS2023,857.6516,RS2023,2023000001,PC,PT1H,1,HOUR 1,2001-01-30T11:10,5,PLASMA,2001-01-30T10:10,OPEN LABEL TREATMENT
20230000011010034,RS2023487A,568.9982,RS2023487A,2023000001,PC,PT1H,1,HOUR 1,2001-01-30T11:10,6,PLASMA,2001-01-30T10:10,OPEN LABEL TREATMENT
20230000011010034,RS2023,1805.9673,RS2023,2023000001,PC,PT1.5H,1.5,HOUR 1.5,2001-01-30T11:40,7,PLASMA,2001-01-30T10:10,OPEN LABEL TREATMENT
20230000011010034,RS2023487A,1570.4075,RS2023487A,2023000001,PC,PT1.5H,1.5,HOUR 1.5,2001-01-30T11:40,8,PLASMA,2001-01-30T10:10,OPEN LABEL TREATMENT
20230000011010034,RS2023,1936.6552,RS2023,2023000001,PC,PT2H,2,HOUR 2,2001-01-30T12:10,9,PLASMA,2001-01-30T10:10,OPEN LABEL TREATMENT
20230000011010034,RS2023487A,2813.2783,RS2023487A,2023000001,PC,PT2H,2,HOUR 2,2001-01-30T12:10,10,PLASMA,2001-01-30T10:10,OPEN LABEL TREATMENT
20230000011010034,RS2023,1801.673,RS2023,2023000001,PC,PT3H,3,HOUR 3,2001-01-30T13:10,11,PLASMA,2001-01-30T10:10,OPEN LABEL TREATMENT
20230000011010034,RS2023487A,4937.903,RS2023487A,2023000001,PC,PT3H,3,HOUR 3,2001-01-30T13:10,12,PLASMA,2001-01-30T10:10,OPEN LABEL TREATMENT
20230000011010034,RS2023,1565.7933,RS2023,2023000001,PC,PT4H,4,HOUR 4,2001-01-30T14:10,13,PLASMA,2001-01-30T10:10,OPEN LABEL TREATMENT
20230000011010034,RS2023487A,6041.7844,RS2023487A,2023000001,PC,PT4H,4,HOUR 4,2001-01-30T14:10,14,PLASMA,2001-01-30T10:10,OPEN LABEL TREATMENT
20230000011010034,RS2023,628.9291,RS2023,2023000001,PC,PT6H,6,HOUR 6,2001-01-30T16:10,15,PLASMA,2001-01-30T10:10,OPEN LABEL TREATMENT
20230000011010034,RS2023487A,5816.6549,RS2023487A,2023000001,PC,PT6H,6,HOUR 6,2001-01-30T16:10,16,PLASMA,2001-01-30T10:10,OPEN LABEL TREATMENT
20230000011010034,RS2023,256.2717,RS2023,2023000001,PC,PT8H,8,HOUR 8,2001-01-30T18:10,17,PLASMA,2001-01-30T10:10,OPEN LABEL TREATMENT
20230000011010034,RS2023487A,4312.7458,RS2023487A,2023000001,PC,PT8H,8,HOUR 8,2001-01-30T18:10,18,PLASMA,2001-01-30T10:10,OPEN LABEL TREATMENT
20230000011010034,RS2023,107.5933,RS2023,2023000001,PC,PT10H,10,HOUR 10,2001-01-30T20:10,19,PLASMA,2001-01-30T10:10,OPEN LABEL TREATMENT
20230000011010034,RS2023487A,2849.8267,RS2023487A,2023000001,PC,PT10H,10,HOUR 10,2001-01-30T20:10,20,PLASMA,2001-01-30T10:10,OPEN LABEL TREATMENT
20230000011010034,RS2023,51.4875,RS2023,2023000001,PC,PT12H,12,HOUR 12,2001-01-30T22:10,21,PLASMA,2001-01-30T10:10,OPEN LABEL TREATMENT
20230000011010034,RS2023487A,1786.1953,RS2023487A,2023000001,PC,PT12H,12,HOUR 12,2001-01-30T22:10,22,PLASMA,2001-01-30T10:10,OPEN LABEL TREATMENT
20230000011010034,RS2023,12.3966,RS2023,2023000001,PC,PT24H,24,HOUR 24,2001-01-31T10:10,23,PLASMA,2001-01-30T10:10,OPEN LABEL TREATMENT
20230000011010034,RS2023487A,147.5707,RS2023487A,2023000001,PC,PT24H,24,HOUR 24,2001-01-31T10:10,24,PLASMA,2001-01-30T10:10,OPEN LABEL TREATMENT
20230000011010034,RS2023,5.176,RS2023,2023000001,PC,PT48H,48,HOUR 48,2001-02-01T10:10,25,PLASMA,2001-01-30T10:10,OPEN LABEL TREATMENT
20230000011010034,RS2023487A,35.1089,RS2023487A,2023000001,PC,PT48H,48,HOUR 48,2001-02-01T10:10,26,PLASMA,2001-01-30T10:10,OPEN LABEL TREATMENT
20230000011010034,RS2023,2.0987,RS2023,2023000001,PC,PT72H,72,HOUR 72,2001-02-02T10:10,27,PLASMA,2001-01-30T10:10,OPEN LABEL TREATMENT
20230000011010034,RS2023487A,13.5074,RS2023487A,2023000001,PC,PT72H,72,HOUR 72,2001-02-02T10:10,28,PLASMA,2001-01-30T10:10,OPEN LABEL TREATMENT
20230000011010034,RS2023,0.7779,RS2023,2023000001,PC,PT96H,96,HOUR 96,2001-02-03T10:10,29,PLASMA,2001-01-30T10:10,OPEN LABEL TREATMENT
20230000011010034,RS2023487A,5.2047,RS2023487A,2023000001,PC,PT96H,96,HOUR 96,2001-02-03T10:10,30,PLASMA,2001-01-30T10:10,OPEN LABEL TREATMENT
20230000011010034,RS2023,0.098,RS2023,2023000001,PC,PT144H,144,HOUR 144,2001-02-05T10:10,31,PLASMA,2001-01-30T10:10,OPEN LABEL TREATMENT
20230000011010034,RS2023487A,0.7728,RS2023487A,2023000001,PC,PT144H,144,HOUR 144,2001-02-05T10:10,32,PLASMA,2001-01-30T10:10,OPEN LABEL TREATMENT
20230000011010034,RS2023,0.0487,RS2023,2023000001,PC,PT168H,168,HOUR 168,2001-02-06T10:10,33,PLASMA,2001-01-30T10:10,OPEN LABEL TREATMENT
20230000011010034,RS2023487A,0.2978,RS2023487A,2023000001,PC,PT168H,168,HOUR 168,2001-02-06T10:10,34,PLASMA,2001-01-30T10:10,OPEN LABEL TREATMENT
20230000011010035,RS2023,0,RS2023,2023000001,PC,PT0H,0,PREDOSE,2001-01-29T09:18,1,PLASMA,2001-01-29T09:18,OPEN LABEL TREATMENT
20230000011010035,RS2023487A,0,RS2023487A,2023000001,PC,PT0H,0,PREDOSE,2001-01-29T09:18,2,PLASMA,2001-01-29T09:18,OPEN LABEL TREATMENT
20230000011010035,RS2023,249.6925,RS2023,2023000001,PC,PT0.5H,0.5,HOUR 0.5,2001-01-29T09:48,3,PLASMA,2001-01-29T09:18,OPEN LABEL TREATMENT
20230000011010035,RS2023487A,146.4015,RS2023487A,2023000001,PC,PT0.5H,0.5,HOUR 0.5,2001-01-29T09:48,4,PLASMA,2001-01-29T09:18,OPEN LABEL TREATMENT
20230000011010035,RS2023,627.4596,RS2023,2023000001,PC,PT1H,1,HOUR 1,2001-01-29T10:18,5,PLASMA,2001-01-29T09:18,OPEN LABEL TREATMENT
20230000011010035,RS2023487A,906.7063,RS2023487A,2023000001,PC,PT1H,1,HOUR 1,2001-01-29T10:18,6,PLASMA,2001-01-29T09:18,OPEN LABEL TREATMENT
20230000011010035,RS2023,1275.3293,RS2023,2023000001,PC,PT1.5H,1.5,HOUR 1.5,2001-01-29T10:48,7,PLASMA,2001-01-29T09:18,OPEN LABEL TREATMENT
20230000011010035,RS2023487A,2396.0305,RS2023487A,2023000001,PC,PT1.5H,1.5,HOUR 1.5,2001-01-29T10:48,8,PLASMA,2001-01-29T09:18,OPEN LABEL TREATMENT
20230000011010035,RS2023,1686.8045,RS2023,2023000001,PC,PT2H,2,HOUR 2,2001-01-29T11:18,9,PLASMA,2001-01-29T09:18,OPEN LABEL TREATMENT
20230000011010035,RS2023487A,4483.6258,RS2023487A,2023000001,PC,PT2H,2,HOUR 2,2001-01-29T11:18,10,PLASMA,2001-01-29T09:18,OPEN LABEL TREATMENT
20230000011010035,RS2023,986.3974,RS2023,2023000001,PC,PT3H,3,HOUR 3,2001-01-29T12:18,11,PLASMA,2001-01-29T09:18,OPEN LABEL TREATMENT
20230000011010035,RS2023487A,8369.131,RS2023487A,2023000001,PC,PT3H,3,HOUR 3,2001-01-29T12:18,12,PLASMA,2001-01-29T09:18,OPEN LABEL TREATMENT
20230000011010035,RS2023,800.7119,RS2023,2023000001,PC,PT4H,4,HOUR 4,2001-01-29T13:18,13,PLASMA,2001-01-29T09:18,OPEN LABEL TREATMENT
20230000011010035,RS2023487A,10150.2419,RS2023487A,2023000001,PC,PT4H,4,HOUR 4,2001-01-29T13:18,14,PLASMA,2001-01-29T09:18,OPEN LABEL TREATMENT
20230000011010035,RS2023,183.2207,RS2023,2023000001,PC,PT6H,6,HOUR 6,2001-01-29T15:18,15,PLASMA,2001-01-29T09:18,OPEN LABEL TREATMENT
20230000011010035,RS2023487A,9681.9228,RS2023487A,2023000001,PC,PT6H,6,HOUR 6,2001-01-29T15:18,16,PLASMA,2001-01-29T09:18,OPEN LABEL TREATMENT
20230000011010035,RS2023,38.9663,RS2023,2023000001,PC,PT8H,8,HOUR 8,2001-01-29T17:18,17,PLASMA,2001-01-29T09:18,OPEN LABEL TREATMENT
20230000011010035,RS2023487A,7749.8421,RS2023487A,2023000001,PC,PT8H,8,HOUR 8,2001-01-29T17:18,18,PLASMA,2001-01-29T09:18,OPEN LABEL TREATMENT
20230000011010035,RS2023,16.7524,RS2023,2023000001,PC,PT10H,10,HOUR 10,2001-01-29T19:18,19,PLASMA,2001-01-29T09:18,OPEN LABEL TREATMENT
20230000011010035,RS2023487A,5963.3395,RS2023487A,2023000001,PC,PT10H,10,HOUR 10,2001-01-29T19:18,20,PLASMA,2001-01-29T09:18,OPEN LABEL TREATMENT
20230000011010035,RS2023,13.0306,RS2023,2023000001,PC,PT12H,12,HOUR 12,2001-01-29T21:18,21,PLASMA,2001-01-29T09:18,OPEN LABEL TREATMENT
20230000011010035,RS2023487A,4556.0552,RS2023487A,2023000001,PC,PT12H,12,HOUR 12,2001-01-29T21:18,22,PLASMA,2001-01-29T09:18,OPEN LABEL TREATMENT
20230000011010035,RS2023,5.917,RS2023,2023000001,PC,PT24H,24,HOUR 24,2001-01-30T09:18,23,PLASMA,2001-01-29T09:18,OPEN LABEL TREATMENT
20230000011010035,RS2023487A,955.8787,RS2023487A,2023000001,PC,PT24H,24,HOUR 24,2001-01-30T09:18,24,PLASMA,2001-01-29T09:18,OPEN LABEL TREATMENT
20230000011010035,RS2023,1.1784,RS2023,2023000001,PC,PT48H,48,HOUR 48,2001-01-31T09:18,25,PLASMA,2001-01-29T09:18,OPEN LABEL TREATMENT
20230000011010035,RS2023487A,75.2803,RS2023487A,2023000001,PC,PT48H,48,HOUR 48,2001-01-31T09:18,26,PLASMA,2001-01-29T09:18,OPEN LABEL TREATMENT
20230000011010035,RS2023,0.3027,RS2023,2023000001,PC,PT72H,72,HOUR 72,2001-02-01T09:18,27,PLASMA,2001-01-29T09:18,OPEN LABEL TREATMENT
20230000011010035,RS2023487A,12.3618,RS2023487A,2023000001,PC,PT72H,72,HOUR 72,2001-02-01T09:18,28,PLASMA,2001-01-29T09:18,OPEN LABEL TREATMENT
20230000011010035,RS2023,0.0781,RS2023,2023000001,PC,PT96H,96,HOUR 96,2001-02-02T09:18,29,PLASMA,2001-01-29T09:18,OPEN LABEL TREATMENT
20230000011010035,RS2023487A,2.5936,RS2023487A,2023000001,PC,PT96H,96,HOUR 96,2001-02-02T09:18,30,PLASMA,2001-01-29T09:18,OPEN LABEL TREATMENT
20230000011010035,RS2023,0.0031,RS2023,2023000001,PC,PT144H,144,HOUR 144,2001-02-04T09:18,31,PLASMA,2001-01-29T09:18,OPEN LABEL TREATMENT
20230000011010035,RS2023487A,0.1251,RS2023487A,2023000001,PC,PT144H,144,HOUR 144,2001-02-04T09:18,32,PLASMA,2001-01-29T09:18,OPEN LABEL TREATMENT
20230000011010035,RS2023,6e-4,RS2023,2023000001,PC,PT168H,168,HOUR 168,2001-02-05T09:18,33,PLASMA,2001-01-29T09:18,OPEN LABEL TREATMENT
20230000011010035,RS2023487A,0.0276,RS2023487A,2023000001,PC,PT168H,168,HOUR 168,2001-02-05T09:18,34,PLASMA,2001-01-29T09:18,OPEN LABEL TREATMENT
20230000011010036,RS2023,0,RS2023,2023000001,PC,PT0H,0,PREDOSE,2001-01-29T11:49,1,PLASMA,2001-01-29T11:49,OPEN LABEL TREATMENT
20230000011010036,RS2023487A,0,RS2023487A,2023000001,PC,PT0H,0,PREDOSE,2001-01-29T11:49,2,PLASMA,2001-01-29T11:49,OPEN LABEL TREATMENT
20230000011010036,RS2023,509.4532,RS2023,2023000001,PC,PT0.5H,0.5,HOUR 0.5,2001-01-29T12:19,3,PLASMA,2001-01-29T11:49,OPEN LABEL TREATMENT
20230000011010036,RS2023487A,172.0342,RS2023487A,2023000001,PC,PT0.5H,0.5,HOUR 0.5,2001-01-29T12:19,4,PLASMA,2001-01-29T11:49,OPEN LABEL TREATMENT
20230000011010036,RS2023,1498.7143,RS2023,2023000001,PC,PT1H,1,HOUR 1,2001-01-29T12:49,5,PLASMA,2001-01-29T11:49,OPEN LABEL TREATMENT
20230000011010036,RS2023487A,1033.3657,RS2023487A,2023000001,PC,PT1H,1,HOUR 1,2001-01-29T12:49,6,PLASMA,2001-01-29T11:49,OPEN LABEL TREATMENT
20230000011010036,RS2023,1976.4879,RS2023,2023000001,PC,PT1.5H,1.5,HOUR 1.5,2001-01-29T13:19,7,PLASMA,2001-01-29T11:49,OPEN LABEL TREATMENT
20230000011010036,RS2023487A,2658.046,RS2023487A,2023000001,PC,PT1.5H,1.5,HOUR 1.5,2001-01-29T13:19,8,PLASMA,2001-01-29T11:49,OPEN LABEL TREATMENT
20230000011010036,RS2023,2056.7208,RS2023,2023000001,PC,PT2H,2,HOUR 2,2001-01-29T13:49,9,PLASMA,2001-01-29T11:49,OPEN LABEL TREATMENT
20230000011010036,RS2023487A,4613.8138,RS2023487A,2023000001,PC,PT2H,2,HOUR 2,2001-01-29T13:49,10,PLASMA,2001-01-29T11:49,OPEN LABEL TREATMENT
20230000011010036,RS2023,1208.0093,RS2023,2023000001,PC,PT3H,3,HOUR 3,2001-01-29T14:49,11,PLASMA,2001-01-29T11:49,OPEN LABEL TREATMENT
20230000011010036,RS2023487A,7248.8966,RS2023487A,2023000001,PC,PT3H,3,HOUR 3,2001-01-29T14:49,12,PLASMA,2001-01-29T11:49,OPEN LABEL TREATMENT
20230000011010036,RS2023,690.5686,RS2023,2023000001,PC,PT4H,4,HOUR 4,2001-01-29T15:49,13,PLASMA,2001-01-29T11:49,OPEN LABEL TREATMENT
20230000011010036,RS2023487A,7933.7815,RS2023487A,2023000001,PC,PT4H,4,HOUR 4,2001-01-29T15:49,14,PLASMA,2001-01-29T11:49,OPEN LABEL TREATMENT
20230000011010036,RS2023,147.2021,RS2023,2023000001,PC,PT6H,6,HOUR 6,2001-01-29T17:49,15,PLASMA,2001-01-29T11:49,OPEN LABEL TREATMENT
20230000011010036,RS2023487A,6676.3987,RS2023487A,2023000001,PC,PT6H,6,HOUR 6,2001-01-29T17:49,16,PLASMA,2001-01-29T11:49,OPEN LABEL TREATMENT
20230000011010036,RS2023,46.006100000000004,RS2023,2023000001,PC,PT8H,8,HOUR 8,2001-01-29T19:49,17,PLASMA,2001-01-29T11:49,OPEN LABEL TREATMENT
20230000011010036,RS2023487A,4856.335,RS2023487A,2023000001,PC,PT8H,8,HOUR 8,2001-01-29T19:49,18,PLASMA,2001-01-29T11:49,OPEN LABEL TREATMENT
20230000011010036,RS2023,19.4243,RS2023,2023000001,PC,PT10H,10,HOUR 10,2001-01-29T21:49,19,PLASMA,2001-01-29T11:49,OPEN LABEL TREATMENT
20230000011010036,RS2023487A,3410.4995,RS2023487A,2023000001,PC,PT10H,10,HOUR 10,2001-01-29T21:49,20,PLASMA,2001-01-29T11:49,OPEN LABEL TREATMENT
20230000011010036,RS2023,11.221,RS2023,2023000001,PC,PT12H,12,HOUR 12,2001-01-29T23:49,21,PLASMA,2001-01-29T11:49,OPEN LABEL TREATMENT
20230000011010036,RS2023487A,2380.3533,RS2023487A,2023000001,PC,PT12H,12,HOUR 12,2001-01-29T23:49,22,PLASMA,2001-01-29T11:49,OPEN LABEL TREATMENT
20230000011010036,RS2023,6.9587,RS2023,2023000001,PC,PT24H,24,HOUR 24,2001-01-30T11:49,23,PLASMA,2001-01-29T11:49,OPEN LABEL TREATMENT
20230000011010036,RS2023487A,322.8627,RS2023487A,2023000001,PC,PT24H,24,HOUR 24,2001-01-30T11:49,24,PLASMA,2001-01-29T11:49,OPEN LABEL TREATMENT
20230000011010036,RS2023,1.7923,RS2023,2023000001,PC,PT48H,48,HOUR 48,2001-01-31T11:49,25,PLASMA,2001-01-29T11:49,OPEN LABEL TREATMENT
20230000011010036,RS2023487A,36.3646,RS2023487A,2023000001,PC,PT48H,48,HOUR 48,2001-01-31T11:49,26,PLASMA,2001-01-29T11:49,OPEN LABEL TREATMENT
20230000011010036,RS2023,0.8786,RS2023,2023000001,PC,PT72H,72,HOUR 72,2001-02-01T11:49,27,PLASMA,2001-01-29T11:49,OPEN LABEL TREATMENT
20230000011010036,RS2023487A,11.8277,RS2023487A,2023000001,PC,PT72H,72,HOUR 72,2001-02-01T11:49,28,PLASMA,2001-01-29T11:49,OPEN LABEL TREATMENT
20230000011010036,RS2023,0.2988,RS2023,2023000001,PC,PT96H,96,HOUR 96,2001-02-02T11:49,29,PLASMA,2001-01-29T11:49,OPEN LABEL TREATMENT
20230000011010036,RS2023487A,4.0911,RS2023487A,2023000001,PC,PT96H,96,HOUR 96,2001-02-02T11:49,30,PLASMA,2001-01-29T11:49,OPEN LABEL TREATMENT
20230000011010036,RS2023,0.0318,RS2023,2023000001,PC,PT144H,144,HOUR 144,2001-02-04T11:49,31,PLASMA,2001-01-29T11:49,OPEN LABEL TREATMENT
20230000011010036,RS2023487A,0.4913,RS2023487A,2023000001,PC,PT144H,144,HOUR 144,2001-02-04T11:49,32,PLASMA,2001-01-29T11:49,OPEN LABEL TREATMENT
20230000011010036,RS2023,0.0099,RS2023,2023000001,PC,PT168H,168,HOUR 168,2001-02-05T11:49,33,PLASMA,2001-01-29T11:49,OPEN LABEL TREATMENT
20230000011010036,RS2023487A,0.1703,RS2023487A,2023000001,PC,PT168H,168,HOUR 168,2001-02-05T11:49,34,PLASMA,2001-01-29T11:49,OPEN LABEL TREATMENT
20230000011010040,RS2023,0,RS2023,2023000001,PC,PT0H,0,PREDOSE,2001-01-30T10:55,1,PLASMA,2001-01-30T10:55,OPEN LABEL TREATMENT
20230000011010040,RS2023487A,0,RS2023487A,2023000001,PC,PT0H,0,PREDOSE,2001-01-30T10:55,2,PLASMA,2001-01-30T10:55,OPEN LABEL TREATMENT
20230000011010040,RS2023,553.7418,RS2023,2023000001,PC,PT0.5H,0.5,HOUR 0.5,2001-01-30T11:25,3,PLASMA,2001-01-30T10:55,OPEN LABEL TREATMENT
20230000011010040,RS2023487A,163.9027,RS2023487A,2023000001,PC,PT0.5H,0.5,HOUR 0.5,2001-01-30T11:25,4,PLASMA,2001-01-30T10:55,OPEN LABEL TREATMENT
20230000011010040,RS2023,1572.3144,RS2023,2023000001,PC,PT1H,1,HOUR 1,2001-01-30T11:55,5,PLASMA,2001-01-30T10:55,OPEN LABEL TREATMENT
20230000011010040,RS2023487A,1033.1133,RS2023487A,2023000001,PC,PT1H,1,HOUR 1,2001-01-30T11:55,6,PLASMA,2001-01-30T10:55,OPEN LABEL TREATMENT
20230000011010040,RS2023,3273.0101,RS2023,2023000001,PC,PT1.5H,1.5,HOUR 1.5,2001-01-30T12:25,7,PLASMA,2001-01-30T10:55,OPEN LABEL TREATMENT
20230000011010040,RS2023487A,2778.559,RS2023487A,2023000001,PC,PT1.5H,1.5,HOUR 1.5,2001-01-30T12:25,8,PLASMA,2001-01-30T10:55,OPEN LABEL TREATMENT
20230000011010040,RS2023,3203.8572,RS2023,2023000001,PC,PT2H,2,HOUR 2,2001-01-30T12:55,9,PLASMA,2001-01-30T10:55,OPEN LABEL TREATMENT
20230000011010040,RS2023487A,5284.656,RS2023487A,2023000001,PC,PT2H,2,HOUR 2,2001-01-30T12:55,10,PLASMA,2001-01-30T10:55,OPEN LABEL TREATMENT
20230000011010040,RS2023,3108.5407,RS2023,2023000001,PC,PT3H,3,HOUR 3,2001-01-30T13:55,11,PLASMA,2001-01-30T10:55,OPEN LABEL TREATMENT
20230000011010040,RS2023487A,10200.8572,RS2023487A,2023000001,PC,PT3H,3,HOUR 3,2001-01-30T13:55,12,PLASMA,2001-01-30T10:55,OPEN LABEL TREATMENT
20230000011010040,RS2023,2589.6478,RS2023,2023000001,PC,PT4H,4,HOUR 4,2001-01-30T14:55,13,PLASMA,2001-01-30T10:55,OPEN LABEL TREATMENT
20230000011010040,RS2023487A,12849.5551,RS2023487A,2023000001,PC,PT4H,4,HOUR 4,2001-01-30T14:55,14,PLASMA,2001-01-30T10:55,OPEN LABEL TREATMENT
20230000011010040,RS2023,845.0857,RS2023,2023000001,PC,PT6H,6,HOUR 6,2001-01-30T16:55,15,PLASMA,2001-01-30T10:55,OPEN LABEL TREATMENT
20230000011010040,RS2023487A,12884.5255,RS2023487A,2023000001,PC,PT6H,6,HOUR 6,2001-01-30T16:55,16,PLASMA,2001-01-30T10:55,OPEN LABEL TREATMENT
20230000011010040,RS2023,398.8951,RS2023,2023000001,PC,PT8H,8,HOUR 8,2001-01-30T18:55,17,PLASMA,2001-01-30T10:55,OPEN LABEL TREATMENT
20230000011010040,RS2023487A,10299.7986,RS2023487A,2023000001,PC,PT8H,8,HOUR 8,2001-01-30T18:55,18,PLASMA,2001-01-30T10:55,OPEN LABEL TREATMENT
20230000011010040,RS2023,150.2759,RS2023,2023000001,PC,PT10H,10,HOUR 10,2001-01-30T20:55,19,PLASMA,2001-01-30T10:55,OPEN LABEL TREATMENT
20230000011010040,RS2023487A,7594.6992,RS2023487A,2023000001,PC,PT10H,10,HOUR 10,2001-01-30T20:55,20,PLASMA,2001-01-30T10:55,OPEN LABEL TREATMENT
20230000011010040,RS2023,99.4267,RS2023,2023000001,PC,PT12H,12,HOUR 12,2001-01-30T22:55,21,PLASMA,2001-01-30T10:55,OPEN LABEL TREATMENT
20230000011010040,RS2023487A,5431.4354,RS2023487A,2023000001,PC,PT12H,12,HOUR 12,2001-01-30T22:55,22,PLASMA,2001-01-30T10:55,OPEN LABEL TREATMENT
20230000011010040,RS2023,37.4699,RS2023,2023000001,PC,PT24H,24,HOUR 24,2001-01-31T10:55,23,PLASMA,2001-01-30T10:55,OPEN LABEL TREATMENT
20230000011010040,RS2023487A,810.9235,RS2023487A,2023000001,PC,PT24H,24,HOUR 24,2001-01-31T10:55,24,PLASMA,2001-01-30T10:55,OPEN LABEL TREATMENT
20230000011010040,RS2023,10.6122,RS2023,2023000001,PC,PT48H,48,HOUR 48,2001-02-01T10:55,25,PLASMA,2001-01-30T10:55,OPEN LABEL TREATMENT
20230000011010040,RS2023487A,122.3073,RS2023487A,2023000001,PC,PT48H,48,HOUR 48,2001-02-01T10:55,26,PLASMA,2001-01-30T10:55,OPEN LABEL TREATMENT
20230000011010040,RS2023,3.8434,RS2023,2023000001,PC,PT72H,72,HOUR 72,2001-02-02T10:55,27,PLASMA,2001-01-30T10:55,OPEN LABEL TREATMENT
20230000011010040,RS2023487A,39.0735,RS2023487A,2023000001,PC,PT72H,72,HOUR 72,2001-02-02T10:55,28,PLASMA,2001-01-30T10:55,OPEN LABEL TREATMENT
20230000011010040,RS2023,1.1748,RS2023,2023000001,PC,PT96H,96,HOUR 96,2001-02-03T10:55,29,PLASMA,2001-01-30T10:55,OPEN LABEL TREATMENT
20230000011010040,RS2023487A,12.8498,RS2023487A,2023000001,PC,PT96H,96,HOUR 96,2001-02-03T10:55,30,PLASMA,2001-01-30T10:55,OPEN LABEL TREATMENT
20230000011010040,RS2023,0.145,RS2023,2023000001,PC,PT144H,144,HOUR 144,2001-02-05T10:55,31,PLASMA,2001-01-30T10:55,OPEN LABEL TREATMENT
20230000011010040,RS2023487A,1.3918,RS2023487A,2023000001,PC,PT144H,144,HOUR 144,2001-02-05T10:55,32,PLASMA,2001-01-30T10:55,OPEN LABEL TREATMENT
20230000011010040,RS2023,0.0475,RS2023,2023000001,PC,PT168H,168,HOUR 168,2001-02-06T10:55,33,PLASMA,2001-01-30T10:55,OPEN LABEL TREATMENT
20230000011010040,RS2023487A,0.458,RS2023487A,2023000001,PC,PT168H,168,HOUR 168,2001-02-06T10:55,34,PLASMA,2001-01-30T10:55,OPEN LABEL TREATMENT
20230000011010041,RS2023,0,RS2023,2023000001,PC,PT0H,0,PREDOSE,2001-01-30T10:47,1,PLASMA,2001-01-30T10:47,OPEN LABEL TREATMENT
20230000011010041,RS2023487A,0,RS2023487A,2023000001,PC,PT0H,0,PREDOSE,2001-01-30T10:47,2,PLASMA,2001-01-30T10:47,OPEN LABEL TREATMENT
20230000011010041,RS2023,300.3886,RS2023,2023000001,PC,PT0.5H,0.5,HOUR 0.5,2001-01-30T11:17,3,PLASMA,2001-01-30T10:47,OPEN LABEL TREATMENT
20230000011010041,RS2023487A,41.8334,RS2023487A,2023000001,PC,PT0.5H,0.5,HOUR 0.5,2001-01-30T11:17,4,PLASMA,2001-01-30T10:47,OPEN LABEL TREATMENT
20230000011010041,RS2023,1016.1469,RS2023,2023000001,PC,PT1H,1,HOUR 1,2001-01-30T11:47,5,PLASMA,2001-01-30T10:47,OPEN LABEL TREATMENT
20230000011010041,RS2023487A,278.8924,RS2023487A,2023000001,PC,PT1H,1,HOUR 1,2001-01-30T11:47,6,PLASMA,2001-01-30T10:47,OPEN LABEL TREATMENT
20230000011010041,RS2023,1651.1002,RS2023,2023000001,PC,PT1.5H,1.5,HOUR 1.5,2001-01-30T12:17,7,PLASMA,2001-01-30T10:47,OPEN LABEL TREATMENT
20230000011010041,RS2023487A,787.7007,RS2023487A,2023000001,PC,PT1.5H,1.5,HOUR 1.5,2001-01-30T12:17,8,PLASMA,2001-01-30T10:47,OPEN LABEL TREATMENT
20230000011010041,RS2023,2397.6925,RS2023,2023000001,PC,PT2H,2,HOUR 2,2001-01-30T12:47,9,PLASMA,2001-01-30T10:47,OPEN LABEL TREATMENT
20230000011010041,RS2023487A,1569.0887,RS2023487A,2023000001,PC,PT2H,2,HOUR 2,2001-01-30T12:47,10,PLASMA,2001-01-30T10:47,OPEN LABEL TREATMENT
20230000011010041,RS2023,3523.79,RS2023,2023000001,PC,PT3H,3,HOUR 3,2001-01-30T13:47,11,PLASMA,2001-01-30T10:47,OPEN LABEL TREATMENT
20230000011010041,RS2023487A,3609.5392,RS2023487A,2023000001,PC,PT3H,3,HOUR 3,2001-01-30T13:47,12,PLASMA,2001-01-30T10:47,OPEN LABEL TREATMENT
20230000011010041,RS2023,2535.2764,RS2023,2023000001,PC,PT4H,4,HOUR 4,2001-01-30T14:47,13,PLASMA,2001-01-30T10:47,OPEN LABEL TREATMENT
20230000011010041,RS2023487A,5226.7784,RS2023487A,2023000001,PC,PT4H,4,HOUR 4,2001-01-30T14:47,14,PLASMA,2001-01-30T10:47,OPEN LABEL TREATMENT
20230000011010041,RS2023,1417.1735,RS2023,2023000001,PC,PT6H,6,HOUR 6,2001-01-30T16:47,15,PLASMA,2001-01-30T10:47,OPEN LABEL TREATMENT
20230000011010041,RS2023487A,6114.6804,RS2023487A,2023000001,PC,PT6H,6,HOUR 6,2001-01-30T16:47,16,PLASMA,2001-01-30T10:47,OPEN LABEL TREATMENT
20230000011010041,RS2023,582.2105,RS2023,2023000001,PC,PT8H,8,HOUR 8,2001-01-30T18:47,17,PLASMA,2001-01-30T10:47,OPEN LABEL TREATMENT
20230000011010041,RS2023487A,5202.9388,RS2023487A,2023000001,PC,PT8H,8,HOUR 8,2001-01-30T18:47,18,PLASMA,2001-01-30T10:47,OPEN LABEL TREATMENT
20230000011010041,RS2023,267.0984,RS2023,2023000001,PC,PT10H,10,HOUR 10,2001-01-30T20:47,19,PLASMA,2001-01-30T10:47,OPEN LABEL TREATMENT
20230000011010041,RS2023487A,3892.4139,RS2023487A,2023000001,PC,PT10H,10,HOUR 10,2001-01-30T20:47,20,PLASMA,2001-01-30T10:47,OPEN LABEL TREATMENT
20230000011010041,RS2023,145.9049,RS2023,2023000001,PC,PT12H,12,HOUR 12,2001-01-30T22:47,21,PLASMA,2001-01-30T10:47,OPEN LABEL TREATMENT
20230000011010041,RS2023487A,2752.6921,RS2023487A,2023000001,PC,PT12H,12,HOUR 12,2001-01-30T22:47,22,PLASMA,2001-01-30T10:47,OPEN LABEL TREATMENT
20230000011010041,RS2023,35.8752,RS2023,2023000001,PC,PT24H,24,HOUR 24,2001-01-31T10:47,23,PLASMA,2001-01-30T10:47,OPEN LABEL TREATMENT
20230000011010041,RS2023487A,356.4264,RS2023487A,2023000001,PC,PT24H,24,HOUR 24,2001-01-31T10:47,24,PLASMA,2001-01-30T10:47,OPEN LABEL TREATMENT
20230000011010041,RS2023,11.6884,RS2023,2023000001,PC,PT48H,48,HOUR 48,2001-02-01T10:47,25,PLASMA,2001-01-30T10:47,OPEN LABEL TREATMENT
20230000011010041,RS2023487A,55.962,RS2023487A,2023000001,PC,PT48H,48,HOUR 48,2001-02-01T10:47,26,PLASMA,2001-01-30T10:47,OPEN LABEL TREATMENT
20230000011010041,RS2023,3.2487,RS2023,2023000001,PC,PT72H,72,HOUR 72,2001-02-02T10:47,27,PLASMA,2001-01-30T10:47,OPEN LABEL TREATMENT
20230000011010041,RS2023487A,17.1752,RS2023487A,2023000001,PC,PT72H,72,HOUR 72,2001-02-02T10:47,28,PLASMA,2001-01-30T10:47,OPEN LABEL TREATMENT
20230000011010041,RS2023,0.876,RS2023,2023000001,PC,PT96H,96,HOUR 96,2001-02-03T10:47,29,PLASMA,2001-01-30T10:47,OPEN LABEL TREATMENT
20230000011010041,RS2023487A,5.3479,RS2023487A,2023000001,PC,PT96H,96,HOUR 96,2001-02-03T10:47,30,PLASMA,2001-01-30T10:47,OPEN LABEL TREATMENT
20230000011010041,RS2023,0.1043,RS2023,2023000001,PC,PT144H,144,HOUR 144,2001-02-05T10:47,31,PLASMA,2001-01-30T10:47,OPEN LABEL TREATMENT
20230000011010041,RS2023487A,0.5187,RS2023487A,2023000001,PC,PT144H,144,HOUR 144,2001-02-05T10:47,32,PLASMA,2001-01-30T10:47,OPEN LABEL TREATMENT
20230000011010041,RS2023,0.0313,RS2023,2023000001,PC,PT168H,168,HOUR 168,2001-02-06T10:47,33,PLASMA,2001-01-30T10:47,OPEN LABEL TREATMENT
20230000011010041,RS2023487A,0.1615,RS2023487A,2023000001,PC,PT168H,168,HOUR 168,2001-02-06T10:47,34,PLASMA,2001-01-30T10:47,OPEN LABEL TREATMENT
20230000011010042,RS2023,0,RS2023,2023000001,PC,PT0H,0,PREDOSE,2001-02-04T10:23,1,PLASMA,2001-02-04T10:23,OPEN LABEL TREATMENT
20230000011010042,RS2023487A,0,RS2023487A,2023000001,PC,PT0H,0,PREDOSE,2001-02-04T10:23,2,PLASMA,2001-02-04T10:23,OPEN LABEL TREATMENT
20230000011010042,RS2023,325.7636,RS2023,2023000001,PC,PT0.5H,0.5,HOUR 0.5,2001-02-04T10:53,3,PLASMA,2001-02-04T10:23,OPEN LABEL TREATMENT
20230000011010042,RS2023487A,61.0311,RS2023487A,2023000001,PC,PT0.5H,0.5,HOUR 0.5,2001-02-04T10:53,4,PLASMA,2001-02-04T10:23,OPEN LABEL TREATMENT
20230000011010042,RS2023,873.1793,RS2023,2023000001,PC,PT1H,1,HOUR 1,2001-02-04T11:23,5,PLASMA,2001-02-04T10:23,OPEN LABEL TREATMENT
20230000011010042,RS2023487A,416.7985,RS2023487A,2023000001,PC,PT1H,1,HOUR 1,2001-02-04T11:23,6,PLASMA,2001-02-04T10:23,OPEN LABEL TREATMENT
20230000011010042,RS2023,1951.2362,RS2023,2023000001,PC,PT1.5H,1.5,HOUR 1.5,2001-02-04T11:53,7,PLASMA,2001-02-04T10:23,OPEN LABEL TREATMENT
20230000011010042,RS2023487A,1203.9889,RS2023487A,2023000001,PC,PT1.5H,1.5,HOUR 1.5,2001-02-04T11:53,8,PLASMA,2001-02-04T10:23,OPEN LABEL TREATMENT
20230000011010042,RS2023,2945.1241,RS2023,2023000001,PC,PT2H,2,HOUR 2,2001-02-04T12:23,9,PLASMA,2001-02-04T10:23,OPEN LABEL TREATMENT
20230000011010042,RS2023487A,2413.9853,RS2023487A,2023000001,PC,PT2H,2,HOUR 2,2001-02-04T12:23,10,PLASMA,2001-02-04T10:23,OPEN LABEL TREATMENT
20230000011010042,RS2023,3146.7902,RS2023,2023000001,PC,PT3H,3,HOUR 3,2001-02-04T13:23,11,PLASMA,2001-02-04T10:23,OPEN LABEL TREATMENT
20230000011010042,RS2023487A,5104.2152,RS2023487A,2023000001,PC,PT3H,3,HOUR 3,2001-02-04T13:23,12,PLASMA,2001-02-04T10:23,OPEN LABEL TREATMENT
20230000011010042,RS2023,2803.1339,RS2023,2023000001,PC,PT4H,4,HOUR 4,2001-02-04T14:23,13,PLASMA,2001-02-04T10:23,OPEN LABEL TREATMENT
20230000011010042,RS2023487A,7120.0209,RS2023487A,2023000001,PC,PT4H,4,HOUR 4,2001-02-04T14:23,14,PLASMA,2001-02-04T10:23,OPEN LABEL TREATMENT
20230000011010042,RS2023,1333.6636,RS2023,2023000001,PC,PT6H,6,HOUR 6,2001-02-04T16:23,15,PLASMA,2001-02-04T10:23,OPEN LABEL TREATMENT
20230000011010042,RS2023487A,8374.5115,RS2023487A,2023000001,PC,PT6H,6,HOUR 6,2001-02-04T16:23,16,PLASMA,2001-02-04T10:23,OPEN LABEL TREATMENT
20230000011010042,RS2023,766.1389,RS2023,2023000001,PC,PT8H,8,HOUR 8,2001-02-04T18:23,17,PLASMA,2001-02-04T10:23,OPEN LABEL TREATMENT
20230000011010042,RS2023487A,7322.3394,RS2023487A,2023000001,PC,PT8H,8,HOUR 8,2001-02-04T18:23,18,PLASMA,2001-02-04T10:23,OPEN LABEL TREATMENT
20230000011010042,RS2023,276.1843,RS2023,2023000001,PC,PT10H,10,HOUR 10,2001-02-04T20:23,19,PLASMA,2001-02-04T10:23,OPEN LABEL TREATMENT
20230000011010042,RS2023487A,5593.5156,RS2023487A,2023000001,PC,PT10H,10,HOUR 10,2001-02-04T20:23,20,PLASMA,2001-02-04T10:23,OPEN LABEL TREATMENT
20230000011010042,RS2023,165.9603,RS2023,2023000001,PC,PT12H,12,HOUR 12,2001-02-04T22:23,21,PLASMA,2001-02-04T10:23,OPEN LABEL TREATMENT
20230000011010042,RS2023487A,3987.9734,RS2023487A,2023000001,PC,PT12H,12,HOUR 12,2001-02-04T22:23,22,PLASMA,2001-02-04T10:23,OPEN LABEL TREATMENT
20230000011010042,RS2023,30.9651,RS2023,2023000001,PC,PT24H,24,HOUR 24,2001-02-05T10:23,23,PLASMA,2001-02-04T10:23,OPEN LABEL TREATMENT
20230000011010042,RS2023487A,444.2419,RS2023487A,2023000001,PC,PT24H,24,HOUR 24,2001-02-05T10:23,24,PLASMA,2001-02-04T10:23,OPEN LABEL TREATMENT
20230000011010042,RS2023,11.815,RS2023,2023000001,PC,PT48H,48,HOUR 48,2001-02-06T10:23,25,PLASMA,2001-02-04T10:23,OPEN LABEL TREATMENT
20230000011010042,RS2023487A,73.4457,RS2023487A,2023000001,PC,PT48H,48,HOUR 48,2001-02-06T10:23,26,PLASMA,2001-02-04T10:23,OPEN LABEL TREATMENT
20230000011010042,RS2023,5.4732,RS2023,2023000001,PC,PT72H,72,HOUR 72,2001-02-07T10:23,27,PLASMA,2001-02-04T10:23,OPEN LABEL TREATMENT
20230000011010042,RS2023487A,28.9619,RS2023487A,2023000001,PC,PT72H,72,HOUR 72,2001-02-07T10:23,28,PLASMA,2001-02-04T10:23,OPEN LABEL TREATMENT
20230000011010042,RS2023,1.8473,RS2023,2023000001,PC,PT96H,96,HOUR 96,2001-02-08T10:23,29,PLASMA,2001-02-04T10:23,OPEN LABEL TREATMENT
20230000011010042,RS2023487A,11.5684,RS2023487A,2023000001,PC,PT96H,96,HOUR 96,2001-02-08T10:23,30,PLASMA,2001-02-04T10:23,OPEN LABEL TREATMENT
20230000011010042,RS2023,0.2967,RS2023,2023000001,PC,PT144H,144,HOUR 144,2001-02-10T10:23,31,PLASMA,2001-02-04T10:23,OPEN LABEL TREATMENT
20230000011010042,RS2023487A,1.8462,RS2023487A,2023000001,PC,PT144H,144,HOUR 144,2001-02-10T10:23,32,PLASMA,2001-02-04T10:23,OPEN LABEL TREATMENT
20230000011010042,RS2023,0.1279,RS2023,2023000001,PC,PT168H,168,HOUR 168,2001-02-11T10:23,33,PLASMA,2001-02-04T10:23,OPEN LABEL TREATMENT
20230000011010042,RS2023487A,0.7375,RS2023487A,2023000001,PC,PT168H,168,HOUR 168,2001-02-11T10:23,34,PLASMA,2001-02-04T10:23,OPEN LABEL TREATMENT
20230000011010043,RS2023,0,RS2023,2023000001,PC,PT0H,0,PREDOSE,2001-02-01T08:48,1,PLASMA,2001-02-01T08:48,OPEN LABEL TREATMENT
20230000011010043,RS2023487A,0,RS2023487A,2023000001,PC,PT0H,0,PREDOSE,2001-02-01T08:48,2,PLASMA,2001-02-01T08:48,OPEN LABEL TREATMENT
20230000011010043,RS2023,349.8986,RS2023,2023000001,PC,PT0.5H,0.5,HOUR 0.5,2001-02-01T09:18,3,PLASMA,2001-02-01T08:48,OPEN LABEL TREATMENT
20230000011010043,RS2023487A,49.0831,RS2023487A,2023000001,PC,PT0.5H,0.5,HOUR 0.5,2001-02-01T09:18,4,PLASMA,2001-02-01T08:48,OPEN LABEL TREATMENT
20230000011010043,RS2023,1133.2983,RS2023,2023000001,PC,PT1H,1,HOUR 1,2001-02-01T09:48,5,PLASMA,2001-02-01T08:48,OPEN LABEL TREATMENT
20230000011010043,RS2023487A,322.5411,RS2023487A,2023000001,PC,PT1H,1,HOUR 1,2001-02-01T09:48,6,PLASMA,2001-02-01T08:48,OPEN LABEL TREATMENT
20230000011010043,RS2023,2415.6577,RS2023,2023000001,PC,PT1.5H,1.5,HOUR 1.5,2001-02-01T10:18,7,PLASMA,2001-02-01T08:48,OPEN LABEL TREATMENT
20230000011010043,RS2023487A,898.3155,RS2023487A,2023000001,PC,PT1.5H,1.5,HOUR 1.5,2001-02-01T10:18,8,PLASMA,2001-02-01T08:48,OPEN LABEL TREATMENT
20230000011010043,RS2023,3415.7821,RS2023,2023000001,PC,PT2H,2,HOUR 2,2001-02-01T10:48,9,PLASMA,2001-02-01T08:48,OPEN LABEL TREATMENT
20230000011010043,RS2023487A,1747.0726,RS2023487A,2023000001,PC,PT2H,2,HOUR 2,2001-02-01T10:48,10,PLASMA,2001-02-01T08:48,OPEN LABEL TREATMENT
20230000011010043,RS2023,3288.4628,RS2023,2023000001,PC,PT3H,3,HOUR 3,2001-02-01T11:48,11,PLASMA,2001-02-01T08:48,OPEN LABEL TREATMENT
20230000011010043,RS2023487A,3454.7223,RS2023487A,2023000001,PC,PT3H,3,HOUR 3,2001-02-01T11:48,12,PLASMA,2001-02-01T08:48,OPEN LABEL TREATMENT
20230000011010043,RS2023,2625.0438,RS2023,2023000001,PC,PT4H,4,HOUR 4,2001-02-01T12:48,13,PLASMA,2001-02-01T08:48,OPEN LABEL TREATMENT
20230000011010043,RS2023487A,4455.6601,RS2023487A,2023000001,PC,PT4H,4,HOUR 4,2001-02-01T12:48,14,PLASMA,2001-02-01T08:48,OPEN LABEL TREATMENT
20230000011010043,RS2023,1117.2872,RS2023,2023000001,PC,PT6H,6,HOUR 6,2001-02-01T14:48,15,PLASMA,2001-02-01T08:48,OPEN LABEL TREATMENT
20230000011010043,RS2023487A,4482.5747,RS2023487A,2023000001,PC,PT6H,6,HOUR 6,2001-02-01T14:48,16,PLASMA,2001-02-01T08:48,OPEN LABEL TREATMENT
20230000011010043,RS2023,564.9828,RS2023,2023000001,PC,PT8H,8,HOUR 8,2001-02-01T16:48,17,PLASMA,2001-02-01T08:48,OPEN LABEL TREATMENT
20230000011010043,RS2023487A,3400.0319,RS2023487A,2023000001,PC,PT8H,8,HOUR 8,2001-02-01T16:48,18,PLASMA,2001-02-01T08:48,OPEN LABEL TREATMENT
20230000011010043,RS2023,246.7717,RS2023,2023000001,PC,PT10H,10,HOUR 10,2001-02-01T18:48,19,PLASMA,2001-02-01T08:48,OPEN LABEL TREATMENT
20230000011010043,RS2023487A,2293.5243,RS2023487A,2023000001,PC,PT10H,10,HOUR 10,2001-02-01T18:48,20,PLASMA,2001-02-01T08:48,OPEN LABEL TREATMENT
20230000011010043,RS2023,128.631,RS2023,2023000001,PC,PT12H,12,HOUR 12,2001-02-01T20:48,21,PLASMA,2001-02-01T08:48,OPEN LABEL TREATMENT
20230000011010043,RS2023487A,1473.0984,RS2023487A,2023000001,PC,PT12H,12,HOUR 12,2001-02-01T20:48,22,PLASMA,2001-02-01T08:48,OPEN LABEL TREATMENT
20230000011010043,RS2023,42.5146,RS2023,2023000001,PC,PT24H,24,HOUR 24,2001-02-02T08:48,23,PLASMA,2001-02-01T08:48,OPEN LABEL TREATMENT
20230000011010043,RS2023487A,162.37,RS2023487A,2023000001,PC,PT24H,24,HOUR 24,2001-02-02T08:48,24,PLASMA,2001-02-01T08:48,OPEN LABEL TREATMENT
20230000011010043,RS2023,13.124,RS2023,2023000001,PC,PT48H,48,HOUR 48,2001-02-03T08:48,25,PLASMA,2001-02-01T08:48,OPEN LABEL TREATMENT
20230000011010043,RS2023487A,36.591,RS2023487A,2023000001,PC,PT48H,48,HOUR 48,2001-02-03T08:48,26,PLASMA,2001-02-01T08:48,OPEN LABEL TREATMENT
20230000011010043,RS2023,3.365,RS2023,2023000001,PC,PT72H,72,HOUR 72,2001-02-04T08:48,27,PLASMA,2001-02-01T08:48,OPEN LABEL TREATMENT
20230000011010043,RS2023487A,11.0948,RS2023487A,2023000001,PC,PT72H,72,HOUR 72,2001-02-04T08:48,28,PLASMA,2001-02-01T08:48,OPEN LABEL TREATMENT
20230000011010043,RS2023,1.0978,RS2023,2023000001,PC,PT96H,96,HOUR 96,2001-02-05T08:48,29,PLASMA,2001-02-01T08:48,OPEN LABEL TREATMENT
20230000011010043,RS2023487A,3.3672,RS2023487A,2023000001,PC,PT96H,96,HOUR 96,2001-02-05T08:48,30,PLASMA,2001-02-01T08:48,OPEN LABEL TREATMENT
20230000011010043,RS2023,0.0973,RS2023,2023000001,PC,PT144H,144,HOUR 144,2001-02-07T08:48,31,PLASMA,2001-02-01T08:48,OPEN LABEL TREATMENT
20230000011010043,RS2023487A,0.3102,RS2023487A,2023000001,PC,PT144H,144,HOUR 144,2001-02-07T08:48,32,PLASMA,2001-02-01T08:48,OPEN LABEL TREATMENT
20230000011010043,RS2023,0.0352,RS2023,2023000001,PC,PT168H,168,HOUR 168,2001-02-08T08:48,33,PLASMA,2001-02-01T08:48,OPEN LABEL TREATMENT
20230000011010043,RS2023487A,0.0941,RS2023487A,2023000001,PC,PT168H,168,HOUR 168,2001-02-08T08:48,34,PLASMA,2001-02-01T08:48,OPEN LABEL TREATMENT
20230000011010044,RS2023,0,RS2023,2023000001,PC,PT0H,0,PREDOSE,2001-02-04T11:38,1,PLASMA,2001-02-04T11:38,OPEN LABEL TREATMENT
20230000011010044,RS2023487A,0,RS2023487A,2023000001,PC,PT0H,0,PREDOSE,2001-02-04T11:38,2,PLASMA,2001-02-04T11:38,OPEN LABEL TREATMENT
20230000011010044,RS2023,325.6362,RS2023,2023000001,PC,PT0.5H,0.5,HOUR 0.5,2001-02-04T12:08,3,PLASMA,2001-02-04T11:38,OPEN LABEL TREATMENT
20230000011010044,RS2023487A,110.4561,RS2023487A,2023000001,PC,PT0.5H,0.5,HOUR 0.5,2001-02-04T12:08,4,PLASMA,2001-02-04T11:38,OPEN LABEL TREATMENT
20230000011010044,RS2023,1382.7388,RS2023,2023000001,PC,PT1H,1,HOUR 1,2001-02-04T12:38,5,PLASMA,2001-02-04T11:38,OPEN LABEL TREATMENT
20230000011010044,RS2023487A,737.877,RS2023487A,2023000001,PC,PT1H,1,HOUR 1,2001-02-04T12:38,6,PLASMA,2001-02-04T11:38,OPEN LABEL TREATMENT
20230000011010044,RS2023,2863.232,RS2023,2023000001,PC,PT1.5H,1.5,HOUR 1.5,2001-02-04T13:08,7,PLASMA,2001-02-04T11:38,OPEN LABEL TREATMENT
20230000011010044,RS2023487A,2089.7503,RS2023487A,2023000001,PC,PT1.5H,1.5,HOUR 1.5,2001-02-04T13:08,8,PLASMA,2001-02-04T11:38,OPEN LABEL TREATMENT
20230000011010044,RS2023,3384.6171,RS2023,2023000001,PC,PT2H,2,HOUR 2,2001-02-04T13:38,9,PLASMA,2001-02-04T11:38,OPEN LABEL TREATMENT
20230000011010044,RS2023487A,4146.6719,RS2023487A,2023000001,PC,PT2H,2,HOUR 2,2001-02-04T13:38,10,PLASMA,2001-02-04T11:38,OPEN LABEL TREATMENT
20230000011010044,RS2023,3074.7194,RS2023,2023000001,PC,PT3H,3,HOUR 3,2001-02-04T14:38,11,PLASMA,2001-02-04T11:38,OPEN LABEL TREATMENT
20230000011010044,RS2023487A,8656.537,RS2023487A,2023000001,PC,PT3H,3,HOUR 3,2001-02-04T14:38,12,PLASMA,2001-02-04T11:38,OPEN LABEL TREATMENT
20230000011010044,RS2023,3036.3752,RS2023,2023000001,PC,PT4H,4,HOUR 4,2001-02-04T15:38,13,PLASMA,2001-02-04T11:38,OPEN LABEL TREATMENT
20230000011010044,RS2023487A,11840.515,RS2023487A,2023000001,PC,PT4H,4,HOUR 4,2001-02-04T15:38,14,PLASMA,2001-02-04T11:38,OPEN LABEL TREATMENT
20230000011010044,RS2023,1432.0694,RS2023,2023000001,PC,PT6H,6,HOUR 6,2001-02-04T17:38,15,PLASMA,2001-02-04T11:38,OPEN LABEL TREATMENT
20230000011010044,RS2023487A,13564.3268,RS2023487A,2023000001,PC,PT6H,6,HOUR 6,2001-02-04T17:38,16,PLASMA,2001-02-04T11:38,OPEN LABEL TREATMENT
20230000011010044,RS2023,703.1454,RS2023,2023000001,PC,PT8H,8,HOUR 8,2001-02-04T19:38,17,PLASMA,2001-02-04T11:38,OPEN LABEL TREATMENT
20230000011010044,RS2023487A,11892.0769,RS2023487A,2023000001,PC,PT8H,8,HOUR 8,2001-02-04T19:38,18,PLASMA,2001-02-04T11:38,OPEN LABEL TREATMENT
20230000011010044,RS2023,228.6169,RS2023,2023000001,PC,PT10H,10,HOUR 10,2001-02-04T21:38,19,PLASMA,2001-02-04T11:38,OPEN LABEL TREATMENT
20230000011010044,RS2023487A,9364.0404,RS2023487A,2023000001,PC,PT10H,10,HOUR 10,2001-02-04T21:38,20,PLASMA,2001-02-04T11:38,OPEN LABEL TREATMENT
20230000011010044,RS2023,145.4138,RS2023,2023000001,PC,PT12H,12,HOUR 12,2001-02-04T23:38,21,PLASMA,2001-02-04T11:38,OPEN LABEL TREATMENT
20230000011010044,RS2023487A,7036.49,RS2023487A,2023000001,PC,PT12H,12,HOUR 12,2001-02-04T23:38,22,PLASMA,2001-02-04T11:38,OPEN LABEL TREATMENT
20230000011010044,RS2023,41.8484,RS2023,2023000001,PC,PT24H,24,HOUR 24,2001-02-05T11:38,23,PLASMA,2001-02-04T11:38,OPEN LABEL TREATMENT
20230000011010044,RS2023487A,1222.3779,RS2023487A,2023000001,PC,PT24H,24,HOUR 24,2001-02-05T11:38,24,PLASMA,2001-02-04T11:38,OPEN LABEL TREATMENT
20230000011010044,RS2023,13.0998,RS2023,2023000001,PC,PT48H,48,HOUR 48,2001-02-06T11:38,25,PLASMA,2001-02-04T11:38,OPEN LABEL TREATMENT
20230000011010044,RS2023487A,173.2471,RS2023487A,2023000001,PC,PT48H,48,HOUR 48,2001-02-06T11:38,26,PLASMA,2001-02-04T11:38,OPEN LABEL TREATMENT
20230000011010044,RS2023,4.749,RS2023,2023000001,PC,PT72H,72,HOUR 72,2001-02-07T11:38,27,PLASMA,2001-02-04T11:38,OPEN LABEL TREATMENT
20230000011010044,RS2023487A,51.8812,RS2023487A,2023000001,PC,PT72H,72,HOUR 72,2001-02-07T11:38,28,PLASMA,2001-02-04T11:38,OPEN LABEL TREATMENT
20230000011010044,RS2023,1.4497,RS2023,2023000001,PC,PT96H,96,HOUR 96,2001-02-08T11:38,29,PLASMA,2001-02-04T11:38,OPEN LABEL TREATMENT
20230000011010044,RS2023487A,16.2188,RS2023487A,2023000001,PC,PT96H,96,HOUR 96,2001-02-08T11:38,30,PLASMA,2001-02-04T11:38,OPEN LABEL TREATMENT
20230000011010044,RS2023,0.1132,RS2023,2023000001,PC,PT144H,144,HOUR 144,2001-02-10T11:38,31,PLASMA,2001-02-04T11:38,OPEN LABEL TREATMENT
20230000011010044,RS2023487A,1.5902,RS2023487A,2023000001,PC,PT144H,144,HOUR 144,2001-02-10T11:38,32,PLASMA,2001-02-04T11:38,OPEN LABEL TREATMENT
20230000011010044,RS2023,0.0438,RS2023,2023000001,PC,PT168H,168,HOUR 168,2001-02-11T11:38,33,PLASMA,2001-02-04T11:38,OPEN LABEL TREATMENT
20230000011010044,RS2023487A,0.4979,RS2023487A,2023000001,PC,PT168H,168,HOUR 168,2001-02-11T11:38,34,PLASMA,2001-02-04T11:38,OPEN LABEL TREATMENT
20230000011010045,RS2023,0,RS2023,2023000001,PC,PT0H,0,PREDOSE,2001-02-05T10:28,1,PLASMA,2001-02-05T10:28,OPEN LABEL TREATMENT
20230000011010045,RS2023487A,0,RS2023487A,2023000001,PC,PT0H,0,PREDOSE,2001-02-05T10:28,2,PLASMA,2001-02-05T10:28,OPEN LABEL TREATMENT
20230000011010045,RS2023,325.9298,RS2023,2023000001,PC,PT0.5H,0.5,HOUR 0.5,2001-02-05T10:58,3,PLASMA,2001-02-05T10:28,OPEN LABEL TREATMENT
20230000011010045,RS2023487A,99.9256,RS2023487A,2023000001,PC,PT0.5H,0.5,HOUR 0.5,2001-02-05T10:58,4,PLASMA,2001-02-05T10:28,OPEN LABEL TREATMENT
20230000011010045,RS2023,1189.5388,RS2023,2023000001,PC,PT1H,1,HOUR 1,2001-02-05T11:28,5,PLASMA,2001-02-05T10:28,OPEN LABEL TREATMENT
20230000011010045,RS2023487A,665.4741,RS2023487A,2023000001,PC,PT1H,1,HOUR 1,2001-02-05T11:28,6,PLASMA,2001-02-05T10:28,OPEN LABEL TREATMENT
20230000011010045,RS2023,1702.5315,RS2023,2023000001,PC,PT1.5H,1.5,HOUR 1.5,2001-02-05T11:58,7,PLASMA,2001-02-05T10:28,OPEN LABEL TREATMENT
20230000011010045,RS2023487A,1877.1955,RS2023487A,2023000001,PC,PT1.5H,1.5,HOUR 1.5,2001-02-05T11:58,8,PLASMA,2001-02-05T10:28,OPEN LABEL TREATMENT
20230000011010045,RS2023,2770.4253,RS2023,2023000001,PC,PT2H,2,HOUR 2,2001-02-05T12:28,9,PLASMA,2001-02-05T10:28,OPEN LABEL TREATMENT
20230000011010045,RS2023487A,3694.6436,RS2023487A,2023000001,PC,PT2H,2,HOUR 2,2001-02-05T12:28,10,PLASMA,2001-02-05T10:28,OPEN LABEL TREATMENT
20230000011010045,RS2023,2560.9762,RS2023,2023000001,PC,PT3H,3,HOUR 3,2001-02-05T13:28,11,PLASMA,2001-02-05T10:28,OPEN LABEL TREATMENT
20230000011010045,RS2023487A,7511.1679,RS2023487A,2023000001,PC,PT3H,3,HOUR 3,2001-02-05T13:28,12,PLASMA,2001-02-05T10:28,OPEN LABEL TREATMENT
20230000011010045,RS2023,2168.9887,RS2023,2023000001,PC,PT4H,4,HOUR 4,2001-02-05T14:28,13,PLASMA,2001-02-05T10:28,OPEN LABEL TREATMENT
20230000011010045,RS2023487A,9998.7086,RS2023487A,2023000001,PC,PT4H,4,HOUR 4,2001-02-05T14:28,14,PLASMA,2001-02-05T10:28,OPEN LABEL TREATMENT
20230000011010045,RS2023,823.0651,RS2023,2023000001,PC,PT6H,6,HOUR 6,2001-02-05T16:28,15,PLASMA,2001-02-05T10:28,OPEN LABEL TREATMENT
20230000011010045,RS2023487A,10760.7368,RS2023487A,2023000001,PC,PT6H,6,HOUR 6,2001-02-05T16:28,16,PLASMA,2001-02-05T10:28,OPEN LABEL TREATMENT
20230000011010045,RS2023,388.6982,RS2023,2023000001,PC,PT8H,8,HOUR 8,2001-02-05T18:28,17,PLASMA,2001-02-05T10:28,OPEN LABEL TREATMENT
20230000011010045,RS2023487A,8766.8355,RS2023487A,2023000001,PC,PT8H,8,HOUR 8,2001-02-05T18:28,18,PLASMA,2001-02-05T10:28,OPEN LABEL TREATMENT
20230000011010045,RS2023,145.6169,RS2023,2023000001,PC,PT10H,10,HOUR 10,2001-02-05T20:28,19,PLASMA,2001-02-05T10:28,OPEN LABEL TREATMENT
20230000011010045,RS2023487A,6370.4284,RS2023487A,2023000001,PC,PT10H,10,HOUR 10,2001-02-05T20:28,20,PLASMA,2001-02-05T10:28,OPEN LABEL TREATMENT
20230000011010045,RS2023,77.6494,RS2023,2023000001,PC,PT12H,12,HOUR 12,2001-02-05T22:28,21,PLASMA,2001-02-05T10:28,OPEN LABEL TREATMENT
20230000011010045,RS2023487A,4403.4128,RS2023487A,2023000001,PC,PT12H,12,HOUR 12,2001-02-05T22:28,22,PLASMA,2001-02-05T10:28,OPEN LABEL TREATMENT
20230000011010045,RS2023,20.5976,RS2023,2023000001,PC,PT24H,24,HOUR 24,2001-02-06T10:28,23,PLASMA,2001-02-05T10:28,OPEN LABEL TREATMENT
20230000011010045,RS2023487A,492.5887,RS2023487A,2023000001,PC,PT24H,24,HOUR 24,2001-02-06T10:28,24,PLASMA,2001-02-05T10:28,OPEN LABEL TREATMENT
20230000011010045,RS2023,6.9066,RS2023,2023000001,PC,PT48H,48,HOUR 48,2001-02-07T10:28,25,PLASMA,2001-02-05T10:28,OPEN LABEL TREATMENT
20230000011010045,RS2023487A,69.9179,RS2023487A,2023000001,PC,PT48H,48,HOUR 48,2001-02-07T10:28,26,PLASMA,2001-02-05T10:28,OPEN LABEL TREATMENT
20230000011010045,RS2023,2.4209,RS2023,2023000001,PC,PT72H,72,HOUR 72,2001-02-08T10:28,27,PLASMA,2001-02-05T10:28,OPEN LABEL TREATMENT
20230000011010045,RS2023487A,24.227,RS2023487A,2023000001,PC,PT72H,72,HOUR 72,2001-02-08T10:28,28,PLASMA,2001-02-05T10:28,OPEN LABEL TREATMENT
20230000011010045,RS2023,0.7597,RS2023,2023000001,PC,PT96H,96,HOUR 96,2001-02-09T10:28,29,PLASMA,2001-02-05T10:28,OPEN LABEL TREATMENT
20230000011010045,RS2023487A,8.5676,RS2023487A,2023000001,PC,PT96H,96,HOUR 96,2001-02-09T10:28,30,PLASMA,2001-02-05T10:28,OPEN LABEL TREATMENT
20230000011010045,RS2023,0.1197,RS2023,2023000001,PC,PT144H,144,HOUR 144,2001-02-11T10:28,31,PLASMA,2001-02-05T10:28,OPEN LABEL TREATMENT
20230000011010045,RS2023487A,1.0721,RS2023487A,2023000001,PC,PT144H,144,HOUR 144,2001-02-11T10:28,32,PLASMA,2001-02-05T10:28,OPEN LABEL TREATMENT
20230000011010045,RS2023,0.0415,RS2023,2023000001,PC,PT168H,168,HOUR 168,2001-02-12T10:28,33,PLASMA,2001-02-05T10:28,OPEN LABEL TREATMENT
20230000011010045,RS2023487A,0.3792,RS2023487A,2023000001,PC,PT168H,168,HOUR 168,2001-02-12T10:28,34,PLASMA,2001-02-05T10:28,OPEN LABEL TREATMENT
20230000011010046,RS2023,0,RS2023,2023000001,PC,PT0H,0,PREDOSE,2001-02-05T09:36,1,PLASMA,2001-02-05T09:36,OPEN LABEL TREATMENT
20230000011010046,RS2023487A,0,RS2023487A,2023000001,PC,PT0H,0,PREDOSE,2001-02-05T09:36,2,PLASMA,2001-02-05T09:36,OPEN LABEL TREATMENT
20230000011010046,RS2023,391.2312,RS2023,2023000001,PC,PT0.5H,0.5,HOUR 0.5,2001-02-05T10:06,3,PLASMA,2001-02-05T09:36,OPEN LABEL TREATMENT
20230000011010046,RS2023487A,62.2789,RS2023487A,2023000001,PC,PT0.5H,0.5,HOUR 0.5,2001-02-05T10:06,4,PLASMA,2001-02-05T09:36,OPEN LABEL TREATMENT
20230000011010046,RS2023,1220.4935,RS2023,2023000001,PC,PT1H,1,HOUR 1,2001-02-05T10:36,5,PLASMA,2001-02-05T09:36,OPEN LABEL TREATMENT
20230000011010046,RS2023487A,421.4696,RS2023487A,2023000001,PC,PT1H,1,HOUR 1,2001-02-05T10:36,6,PLASMA,2001-02-05T09:36,OPEN LABEL TREATMENT
20230000011010046,RS2023,1945.8993,RS2023,2023000001,PC,PT1.5H,1.5,HOUR 1.5,2001-02-05T11:06,7,PLASMA,2001-02-05T09:36,OPEN LABEL TREATMENT
20230000011010046,RS2023487A,1207.7925,RS2023487A,2023000001,PC,PT1.5H,1.5,HOUR 1.5,2001-02-05T11:06,8,PLASMA,2001-02-05T09:36,OPEN LABEL TREATMENT
20230000011010046,RS2023,2929.5094,RS2023,2023000001,PC,PT2H,2,HOUR 2,2001-02-05T11:36,9,PLASMA,2001-02-05T09:36,OPEN LABEL TREATMENT
20230000011010046,RS2023487A,2439.8823,RS2023487A,2023000001,PC,PT2H,2,HOUR 2,2001-02-05T11:36,10,PLASMA,2001-02-05T09:36,OPEN LABEL TREATMENT
20230000011010046,RS2023,4066.406,RS2023,2023000001,PC,PT3H,3,HOUR 3,2001-02-05T12:36,11,PLASMA,2001-02-05T09:36,OPEN LABEL TREATMENT
20230000011010046,RS2023487A,5651.1337,RS2023487A,2023000001,PC,PT3H,3,HOUR 3,2001-02-05T12:36,12,PLASMA,2001-02-05T09:36,OPEN LABEL TREATMENT
20230000011010046,RS2023,3603.2315,RS2023,2023000001,PC,PT4H,4,HOUR 4,2001-02-05T13:36,13,PLASMA,2001-02-05T09:36,OPEN LABEL TREATMENT
20230000011010046,RS2023487A,8304.9143,RS2023487A,2023000001,PC,PT4H,4,HOUR 4,2001-02-05T13:36,14,PLASMA,2001-02-05T09:36,OPEN LABEL TREATMENT
20230000011010046,RS2023,2491.9411,RS2023,2023000001,PC,PT6H,6,HOUR 6,2001-02-05T15:36,15,PLASMA,2001-02-05T09:36,OPEN LABEL TREATMENT
20230000011010046,RS2023487A,10286.0888,RS2023487A,2023000001,PC,PT6H,6,HOUR 6,2001-02-05T15:36,16,PLASMA,2001-02-05T09:36,OPEN LABEL TREATMENT
20230000011010046,RS2023,1335.0857,RS2023,2023000001,PC,PT8H,8,HOUR 8,2001-02-05T17:36,17,PLASMA,2001-02-05T09:36,OPEN LABEL TREATMENT
20230000011010046,RS2023487A,9383.7542,RS2023487A,2023000001,PC,PT8H,8,HOUR 8,2001-02-05T17:36,18,PLASMA,2001-02-05T09:36,OPEN LABEL TREATMENT
20230000011010046,RS2023,640.8981,RS2023,2023000001,PC,PT10H,10,HOUR 10,2001-02-05T19:36,19,PLASMA,2001-02-05T09:36,OPEN LABEL TREATMENT
20230000011010046,RS2023487A,7562.0054,RS2023487A,2023000001,PC,PT10H,10,HOUR 10,2001-02-05T19:36,20,PLASMA,2001-02-05T09:36,OPEN LABEL TREATMENT
20230000011010046,RS2023,330.4149,RS2023,2023000001,PC,PT12H,12,HOUR 12,2001-02-05T21:36,21,PLASMA,2001-02-05T09:36,OPEN LABEL TREATMENT
20230000011010046,RS2023487A,5776.4918,RS2023487A,2023000001,PC,PT12H,12,HOUR 12,2001-02-05T21:36,22,PLASMA,2001-02-05T09:36,OPEN LABEL TREATMENT
20230000011010046,RS2023,113.4316,RS2023,2023000001,PC,PT24H,24,HOUR 24,2001-02-06T09:36,23,PLASMA,2001-02-05T09:36,OPEN LABEL TREATMENT
20230000011010046,RS2023487A,1146.5389,RS2023487A,2023000001,PC,PT24H,24,HOUR 24,2001-02-06T09:36,24,PLASMA,2001-02-05T09:36,OPEN LABEL TREATMENT
20230000011010046,RS2023,20.0211,RS2023,2023000001,PC,PT48H,48,HOUR 48,2001-02-07T09:36,25,PLASMA,2001-02-05T09:36,OPEN LABEL TREATMENT
20230000011010046,RS2023487A,151.477,RS2023487A,2023000001,PC,PT48H,48,HOUR 48,2001-02-07T09:36,26,PLASMA,2001-02-05T09:36,OPEN LABEL TREATMENT
20230000011010046,RS2023,3.5172,RS2023,2023000001,PC,PT72H,72,HOUR 72,2001-02-08T09:36,27,PLASMA,2001-02-05T09:36,OPEN LABEL TREATMENT
20230000011010046,RS2023487A,28.539,RS2023487A,2023000001,PC,PT72H,72,HOUR 72,2001-02-08T09:36,28,PLASMA,2001-02-05T09:36,OPEN LABEL TREATMENT
20230000011010046,RS2023,0.6297,RS2023,2023000001,PC,PT96H,96,HOUR 96,2001-02-09T09:36,29,PLASMA,2001-02-05T09:36,OPEN LABEL TREATMENT
20230000011010046,RS2023487A,5.46,RS2023487A,2023000001,PC,PT96H,96,HOUR 96,2001-02-09T09:36,30,PLASMA,2001-02-05T09:36,OPEN LABEL TREATMENT
20230000011010046,RS2023,0.0324,RS2023,2023000001,PC,PT144H,144,HOUR 144,2001-02-11T09:36,31,PLASMA,2001-02-05T09:36,OPEN LABEL TREATMENT
20230000011010046,RS2023487A,0.2001,RS2023487A,2023000001,PC,PT144H,144,HOUR 144,2001-02-11T09:36,32,PLASMA,2001-02-05T09:36,OPEN LABEL TREATMENT
20230000011010046,RS2023,0.0056,RS2023,2023000001,PC,PT168H,168,HOUR 168,2001-02-12T09:36,33,PLASMA,2001-02-05T09:36,OPEN LABEL TREATMENT
20230000011010046,RS2023487A,0.0383,RS2023487A,2023000001,PC,PT168H,168,HOUR 168,2001-02-12T09:36,34,PLASMA,2001-02-05T09:36,OPEN LABEL TREATMENT
20230000011010047,RS2023,0,RS2023,2023000001,PC,PT0H,0,PREDOSE,2001-02-05T09:39,1,PLASMA,2001-02-05T09:39,OPEN LABEL TREATMENT
20230000011010047,RS2023487A,0,RS2023487A,2023000001,PC,PT0H,0,PREDOSE,2001-02-05T09:39,2,PLASMA,2001-02-05T09:39,OPEN LABEL TREATMENT
20230000011010047,RS2023,405.2043,RS2023,2023000001,PC,PT0.5H,0.5,HOUR 0.5,2001-02-05T10:09,3,PLASMA,2001-02-05T09:39,OPEN LABEL TREATMENT
20230000011010047,RS2023487A,125.4137,RS2023487A,2023000001,PC,PT0.5H,0.5,HOUR 0.5,2001-02-05T10:09,4,PLASMA,2001-02-05T09:39,OPEN LABEL TREATMENT
20230000011010047,RS2023,1398.5297,RS2023,2023000001,PC,PT1H,1,HOUR 1,2001-02-05T10:39,5,PLASMA,2001-02-05T09:39,OPEN LABEL TREATMENT
20230000011010047,RS2023487A,814.6828,RS2023487A,2023000001,PC,PT1H,1,HOUR 1,2001-02-05T10:39,6,PLASMA,2001-02-05T09:39,OPEN LABEL TREATMENT
20230000011010047,RS2023,2614.6084,RS2023,2023000001,PC,PT1.5H,1.5,HOUR 1.5,2001-02-05T11:09,7,PLASMA,2001-02-05T09:39,OPEN LABEL TREATMENT
20230000011010047,RS2023487A,2241.4662,RS2023487A,2023000001,PC,PT1.5H,1.5,HOUR 1.5,2001-02-05T11:09,8,PLASMA,2001-02-05T09:39,OPEN LABEL TREATMENT
20230000011010047,RS2023,3677.9449,RS2023,2023000001,PC,PT2H,2,HOUR 2,2001-02-05T11:39,9,PLASMA,2001-02-05T09:39,OPEN LABEL TREATMENT
20230000011010047,RS2023487A,4319.333,RS2023487A,2023000001,PC,PT2H,2,HOUR 2,2001-02-05T11:39,10,PLASMA,2001-02-05T09:39,OPEN LABEL TREATMENT
20230000011010047,RS2023,2635.9189,RS2023,2023000001,PC,PT3H,3,HOUR 3,2001-02-05T12:39,11,PLASMA,2001-02-05T09:39,OPEN LABEL TREATMENT
20230000011010047,RS2023487A,8373.6699,RS2023487A,2023000001,PC,PT3H,3,HOUR 3,2001-02-05T12:39,12,PLASMA,2001-02-05T09:39,OPEN LABEL TREATMENT
20230000011010047,RS2023,2856.1122,RS2023,2023000001,PC,PT4H,4,HOUR 4,2001-02-05T13:39,13,PLASMA,2001-02-05T09:39,OPEN LABEL TREATMENT
20230000011010047,RS2023487A,10409.0258,RS2023487A,2023000001,PC,PT4H,4,HOUR 4,2001-02-05T13:39,14,PLASMA,2001-02-05T09:39,OPEN LABEL TREATMENT
20230000011010047,RS2023,1322.5745,RS2023,2023000001,PC,PT6H,6,HOUR 6,2001-02-05T15:39,15,PLASMA,2001-02-05T09:39,OPEN LABEL TREATMENT
20230000011010047,RS2023487A,9429.3651,RS2023487A,2023000001,PC,PT6H,6,HOUR 6,2001-02-05T15:39,16,PLASMA,2001-02-05T09:39,OPEN LABEL TREATMENT
20230000011010047,RS2023,541.8864,RS2023,2023000001,PC,PT8H,8,HOUR 8,2001-02-05T17:39,17,PLASMA,2001-02-05T09:39,OPEN LABEL TREATMENT
20230000011010047,RS2023487A,6254.796,RS2023487A,2023000001,PC,PT8H,8,HOUR 8,2001-02-05T17:39,18,PLASMA,2001-02-05T09:39,OPEN LABEL TREATMENT
20230000011010047,RS2023,181.9364,RS2023,2023000001,PC,PT10H,10,HOUR 10,2001-02-05T19:39,19,PLASMA,2001-02-05T09:39,OPEN LABEL TREATMENT
20230000011010047,RS2023487A,3607.7427,RS2023487A,2023000001,PC,PT10H,10,HOUR 10,2001-02-05T19:39,20,PLASMA,2001-02-05T09:39,OPEN LABEL TREATMENT
20230000011010047,RS2023,89.6913,RS2023,2023000001,PC,PT12H,12,HOUR 12,2001-02-05T21:39,21,PLASMA,2001-02-05T09:39,OPEN LABEL TREATMENT
20230000011010047,RS2023487A,1947.8241,RS2023487A,2023000001,PC,PT12H,12,HOUR 12,2001-02-05T21:39,22,PLASMA,2001-02-05T09:39,OPEN LABEL TREATMENT
20230000011010047,RS2023,18.038,RS2023,2023000001,PC,PT24H,24,HOUR 24,2001-02-06T09:39,23,PLASMA,2001-02-05T09:39,OPEN LABEL TREATMENT
20230000011010047,RS2023487A,110.465,RS2023487A,2023000001,PC,PT24H,24,HOUR 24,2001-02-06T09:39,24,PLASMA,2001-02-05T09:39,OPEN LABEL TREATMENT
20230000011010047,RS2023,7.9919,RS2023,2023000001,PC,PT48H,48,HOUR 48,2001-02-07T09:39,25,PLASMA,2001-02-05T09:39,OPEN LABEL TREATMENT
20230000011010047,RS2023487A,40.1603,RS2023487A,2023000001,PC,PT48H,48,HOUR 48,2001-02-07T09:39,26,PLASMA,2001-02-05T09:39,OPEN LABEL TREATMENT
20230000011010047,RS2023,3.6803,RS2023,2023000001,PC,PT72H,72,HOUR 72,2001-02-08T09:39,27,PLASMA,2001-02-05T09:39,OPEN LABEL TREATMENT
20230000011010047,RS2023487A,18.0609,RS2023487A,2023000001,PC,PT72H,72,HOUR 72,2001-02-08T09:39,28,PLASMA,2001-02-05T09:39,OPEN LABEL TREATMENT
20230000011010047,RS2023,1.6628,RS2023,2023000001,PC,PT96H,96,HOUR 96,2001-02-09T09:39,29,PLASMA,2001-02-05T09:39,OPEN LABEL TREATMENT
20230000011010047,RS2023487A,8.1227,RS2023487A,2023000001,PC,PT96H,96,HOUR 96,2001-02-09T09:39,30,PLASMA,2001-02-05T09:39,OPEN LABEL TREATMENT
20230000011010047,RS2023,0.3439,RS2023,2023000001,PC,PT144H,144,HOUR 144,2001-02-11T09:39,31,PLASMA,2001-02-05T09:39,OPEN LABEL TREATMENT
20230000011010047,RS2023487A,1.6429,RS2023487A,2023000001,PC,PT144H,144,HOUR 144,2001-02-11T09:39,32,PLASMA,2001-02-05T09:39,OPEN LABEL TREATMENT
20230000011010047,RS2023,0.1353,RS2023,2023000001,PC,PT168H,168,HOUR 168,2001-02-12T09:39,33,PLASMA,2001-02-05T09:39,OPEN LABEL TREATMENT
20230000011010047,RS2023487A,0.7389,RS2023487A,2023000001,PC,PT168H,168,HOUR 168,2001-02-12T09:39,34,PLASMA,2001-02-05T09:39,OPEN LABEL TREATMENT
20230000011010048,RS2023,0,RS2023,2023000001,PC,PT0H,0,PREDOSE,2001-02-09T11:40,1,PLASMA,2001-02-09T11:40,OPEN LABEL TREATMENT
20230000011010048,RS2023487A,0,RS2023487A,2023000001,PC,PT0H,0,PREDOSE,2001-02-09T11:40,2,PLASMA,2001-02-09T11:40,OPEN LABEL TREATMENT
20230000011010048,RS2023,445.5981,RS2023,2023000001,PC,PT0.5H,0.5,HOUR 0.5,2001-02-09T12:10,3,PLASMA,2001-02-09T11:40,OPEN LABEL TREATMENT
20230000011010048,RS2023487A,153.9038,RS2023487A,2023000001,PC,PT0.5H,0.5,HOUR 0.5,2001-02-09T12:10,4,PLASMA,2001-02-09T11:40,OPEN LABEL TREATMENT
20230000011010048,RS2023,1337.6028,RS2023,2023000001,PC,PT1H,1,HOUR 1,2001-02-09T12:40,5,PLASMA,2001-02-09T11:40,OPEN LABEL TREATMENT
20230000011010048,RS2023487A,1032.4702,RS2023487A,2023000001,PC,PT1H,1,HOUR 1,2001-02-09T12:40,6,PLASMA,2001-02-09T11:40,OPEN LABEL TREATMENT
20230000011010048,RS2023,2856.5878,RS2023,2023000001,PC,PT1.5H,1.5,HOUR 1.5,2001-02-09T13:10,7,PLASMA,2001-02-09T11:40,OPEN LABEL TREATMENT
20230000011010048,RS2023487A,2936.0871,RS2023487A,2023000001,PC,PT1.5H,1.5,HOUR 1.5,2001-02-09T13:10,8,PLASMA,2001-02-09T11:40,OPEN LABEL TREATMENT
20230000011010048,RS2023,3327.0755,RS2023,2023000001,PC,PT2H,2,HOUR 2,2001-02-09T13:40,9,PLASMA,2001-02-09T11:40,OPEN LABEL TREATMENT
20230000011010048,RS2023487A,5882.203,RS2023487A,2023000001,PC,PT2H,2,HOUR 2,2001-02-09T13:40,10,PLASMA,2001-02-09T11:40,OPEN LABEL TREATMENT
20230000011010048,RS2023,4524.4778,RS2023,2023000001,PC,PT3H,3,HOUR 3,2001-02-09T14:40,11,PLASMA,2001-02-09T11:40,OPEN LABEL TREATMENT
20230000011010048,RS2023487A,12815.1991,RS2023487A,2023000001,PC,PT3H,3,HOUR 3,2001-02-09T14:40,12,PLASMA,2001-02-09T11:40,OPEN LABEL TREATMENT
20230000011010048,RS2023,2710.4014,RS2023,2023000001,PC,PT4H,4,HOUR 4,2001-02-09T15:40,13,PLASMA,2001-02-09T11:40,OPEN LABEL TREATMENT
20230000011010048,RS2023487A,18059.8193,RS2023487A,2023000001,PC,PT4H,4,HOUR 4,2001-02-09T15:40,14,PLASMA,2001-02-09T11:40,OPEN LABEL TREATMENT
20230000011010048,RS2023,1106.7268,RS2023,2023000001,PC,PT6H,6,HOUR 6,2001-02-09T17:40,15,PLASMA,2001-02-09T11:40,OPEN LABEL TREATMENT
20230000011010048,RS2023487A,21651.0244,RS2023487A,2023000001,PC,PT6H,6,HOUR 6,2001-02-09T17:40,16,PLASMA,2001-02-09T11:40,OPEN LABEL TREATMENT
20230000011010048,RS2023,645.0007,RS2023,2023000001,PC,PT8H,8,HOUR 8,2001-02-09T19:40,17,PLASMA,2001-02-09T11:40,OPEN LABEL TREATMENT
20230000011010048,RS2023487A,19863.5854,RS2023487A,2023000001,PC,PT8H,8,HOUR 8,2001-02-09T19:40,18,PLASMA,2001-02-09T11:40,OPEN LABEL TREATMENT
20230000011010048,RS2023,205.0486,RS2023,2023000001,PC,PT10H,10,HOUR 10,2001-02-09T21:40,19,PLASMA,2001-02-09T11:40,OPEN LABEL TREATMENT
20230000011010048,RS2023487A,16463.232,RS2023487A,2023000001,PC,PT10H,10,HOUR 10,2001-02-09T21:40,20,PLASMA,2001-02-09T11:40,OPEN LABEL TREATMENT
20230000011010048,RS2023,99.5529,RS2023,2023000001,PC,PT12H,12,HOUR 12,2001-02-09T23:40,21,PLASMA,2001-02-09T11:40,OPEN LABEL TREATMENT
20230000011010048,RS2023487A,13090.4743,RS2023487A,2023000001,PC,PT12H,12,HOUR 12,2001-02-09T23:40,22,PLASMA,2001-02-09T11:40,OPEN LABEL TREATMENT
20230000011010048,RS2023,38.5124,RS2023,2023000001,PC,PT24H,24,HOUR 24,2001-02-10T11:40,23,PLASMA,2001-02-09T11:40,OPEN LABEL TREATMENT
20230000011010048,RS2023487A,3004.9654,RS2023487A,2023000001,PC,PT24H,24,HOUR 24,2001-02-10T11:40,24,PLASMA,2001-02-09T11:40,OPEN LABEL TREATMENT
20230000011010048,RS2023,11.3021,RS2023,2023000001,PC,PT48H,48,HOUR 48,2001-02-11T11:40,25,PLASMA,2001-02-09T11:40,OPEN LABEL TREATMENT
20230000011010048,RS2023487A,332.6714,RS2023487A,2023000001,PC,PT48H,48,HOUR 48,2001-02-11T11:40,26,PLASMA,2001-02-09T11:40,OPEN LABEL TREATMENT
20230000011010048,RS2023,3.6093,RS2023,2023000001,PC,PT72H,72,HOUR 72,2001-02-12T11:40,27,PLASMA,2001-02-09T11:40,OPEN LABEL TREATMENT
20230000011010048,RS2023487A,93.0259,RS2023487A,2023000001,PC,PT72H,72,HOUR 72,2001-02-12T11:40,28,PLASMA,2001-02-09T11:40,OPEN LABEL TREATMENT
20230000011010048,RS2023,1.1227,RS2023,2023000001,PC,PT96H,96,HOUR 96,2001-02-13T11:40,29,PLASMA,2001-02-09T11:40,OPEN LABEL TREATMENT
20230000011010048,RS2023487A,32.4518,RS2023487A,2023000001,PC,PT96H,96,HOUR 96,2001-02-13T11:40,30,PLASMA,2001-02-09T11:40,OPEN LABEL TREATMENT
20230000011010048,RS2023,0.2216,RS2023,2023000001,PC,PT144H,144,HOUR 144,2001-02-15T11:40,31,PLASMA,2001-02-09T11:40,OPEN LABEL TREATMENT
20230000011010048,RS2023487A,4.1661,RS2023487A,2023000001,PC,PT144H,144,HOUR 144,2001-02-15T11:40,32,PLASMA,2001-02-09T11:40,OPEN LABEL TREATMENT
20230000011010048,RS2023,0.0709,RS2023,2023000001,PC,PT168H,168,HOUR 168,2001-02-16T11:40,33,PLASMA,2001-02-09T11:40,OPEN LABEL TREATMENT
20230000011010048,RS2023487A,1.495,RS2023487A,2023000001,PC,PT168H,168,HOUR 168,2001-02-16T11:40,34,PLASMA,2001-02-09T11:40,OPEN LABEL TREATMENT
20230000011010049,RS2023,0,RS2023,2023000001,PC,PT0H,0,PREDOSE,2001-02-08T09:46,1,PLASMA,2001-02-08T09:46,OPEN LABEL TREATMENT
20230000011010049,RS2023487A,0,RS2023487A,2023000001,PC,PT0H,0,PREDOSE,2001-02-08T09:46,2,PLASMA,2001-02-08T09:46,OPEN LABEL TREATMENT
20230000011010049,RS2023,140.3409,RS2023,2023000001,PC,PT0.5H,0.5,HOUR 0.5,2001-02-08T10:16,3,PLASMA,2001-02-08T09:46,OPEN LABEL TREATMENT
20230000011010049,RS2023487A,25.1357,RS2023487A,2023000001,PC,PT0.5H,0.5,HOUR 0.5,2001-02-08T10:16,4,PLASMA,2001-02-08T09:46,OPEN LABEL TREATMENT
20230000011010049,RS2023,512.317,RS2023,2023000001,PC,PT1H,1,HOUR 1,2001-02-08T10:46,5,PLASMA,2001-02-08T09:46,OPEN LABEL TREATMENT
20230000011010049,RS2023487A,168.9372,RS2023487A,2023000001,PC,PT1H,1,HOUR 1,2001-02-08T10:46,6,PLASMA,2001-02-08T09:46,OPEN LABEL TREATMENT
20230000011010049,RS2023,1071.3272,RS2023,2023000001,PC,PT1.5H,1.5,HOUR 1.5,2001-02-08T11:16,7,PLASMA,2001-02-08T09:46,OPEN LABEL TREATMENT
20230000011010049,RS2023487A,480.7823,RS2023487A,2023000001,PC,PT1.5H,1.5,HOUR 1.5,2001-02-08T11:16,8,PLASMA,2001-02-08T09:46,OPEN LABEL TREATMENT
20230000011010049,RS2023,1701.9712,RS2023,2023000001,PC,PT2H,2,HOUR 2,2001-02-08T11:46,9,PLASMA,2001-02-08T09:46,OPEN LABEL TREATMENT
20230000011010049,RS2023487A,964.5374,RS2023487A,2023000001,PC,PT2H,2,HOUR 2,2001-02-08T11:46,10,PLASMA,2001-02-08T09:46,OPEN LABEL TREATMENT
20230000011010049,RS2023,1950.708,RS2023,2023000001,PC,PT3H,3,HOUR 3,2001-02-08T12:46,11,PLASMA,2001-02-08T09:46,OPEN LABEL TREATMENT
20230000011010049,RS2023487A,2176.672,RS2023487A,2023000001,PC,PT3H,3,HOUR 3,2001-02-08T12:46,12,PLASMA,2001-02-08T09:46,OPEN LABEL TREATMENT
20230000011010049,RS2023,1600.4111,RS2023,2023000001,PC,PT4H,4,HOUR 4,2001-02-08T13:46,13,PLASMA,2001-02-08T09:46,OPEN LABEL TREATMENT
20230000011010049,RS2023487A,3112.9813,RS2023487A,2023000001,PC,PT4H,4,HOUR 4,2001-02-08T13:46,14,PLASMA,2001-02-08T09:46,OPEN LABEL TREATMENT
20230000011010049,RS2023,939.9796,RS2023,2023000001,PC,PT6H,6,HOUR 6,2001-02-08T15:46,15,PLASMA,2001-02-08T09:46,OPEN LABEL TREATMENT
20230000011010049,RS2023487A,3660.4417,RS2023487A,2023000001,PC,PT6H,6,HOUR 6,2001-02-08T15:46,16,PLASMA,2001-02-08T09:46,OPEN LABEL TREATMENT
20230000011010049,RS2023,356.7176,RS2023,2023000001,PC,PT8H,8,HOUR 8,2001-02-08T17:46,17,PLASMA,2001-02-08T09:46,OPEN LABEL TREATMENT
20230000011010049,RS2023487A,3166.1625,RS2023487A,2023000001,PC,PT8H,8,HOUR 8,2001-02-08T17:46,18,PLASMA,2001-02-08T09:46,OPEN LABEL TREATMENT
20230000011010049,RS2023,156.7164,RS2023,2023000001,PC,PT10H,10,HOUR 10,2001-02-08T19:46,19,PLASMA,2001-02-08T09:46,OPEN LABEL TREATMENT
20230000011010049,RS2023487A,2410.7821,RS2023487A,2023000001,PC,PT10H,10,HOUR 10,2001-02-08T19:46,20,PLASMA,2001-02-08T09:46,OPEN LABEL TREATMENT
20230000011010049,RS2023,62.0414,RS2023,2023000001,PC,PT12H,12,HOUR 12,2001-02-08T21:46,21,PLASMA,2001-02-08T09:46,OPEN LABEL TREATMENT
20230000011010049,RS2023487A,1731.6272,RS2023487A,2023000001,PC,PT12H,12,HOUR 12,2001-02-08T21:46,22,PLASMA,2001-02-08T09:46,OPEN LABEL TREATMENT
20230000011010049,RS2023,11.4889,RS2023,2023000001,PC,PT24H,24,HOUR 24,2001-02-09T09:46,23,PLASMA,2001-02-08T09:46,OPEN LABEL TREATMENT
20230000011010049,RS2023487A,214.1688,RS2023487A,2023000001,PC,PT24H,24,HOUR 24,2001-02-09T09:46,24,PLASMA,2001-02-08T09:46,OPEN LABEL TREATMENT
20230000011010049,RS2023,4.816,RS2023,2023000001,PC,PT48H,48,HOUR 48,2001-02-10T09:46,25,PLASMA,2001-02-08T09:46,OPEN LABEL TREATMENT
20230000011010049,RS2023487A,28.1652,RS2023487A,2023000001,PC,PT48H,48,HOUR 48,2001-02-10T09:46,26,PLASMA,2001-02-08T09:46,OPEN LABEL TREATMENT
20230000011010049,RS2023,2.3022,RS2023,2023000001,PC,PT72H,72,HOUR 72,2001-02-11T09:46,27,PLASMA,2001-02-08T09:46,OPEN LABEL TREATMENT
20230000011010049,RS2023487A,11.0124,RS2023487A,2023000001,PC,PT72H,72,HOUR 72,2001-02-11T09:46,28,PLASMA,2001-02-08T09:46,OPEN LABEL TREATMENT
20230000011010049,RS2023,0.8554,RS2023,2023000001,PC,PT96H,96,HOUR 96,2001-02-12T09:46,29,PLASMA,2001-02-08T09:46,OPEN LABEL TREATMENT
20230000011010049,RS2023487A,4.4677,RS2023487A,2023000001,PC,PT96H,96,HOUR 96,2001-02-12T09:46,30,PLASMA,2001-02-08T09:46,OPEN LABEL TREATMENT
20230000011010049,RS2023,0.15,RS2023,2023000001,PC,PT144H,144,HOUR 144,2001-02-14T09:46,31,PLASMA,2001-02-08T09:46,OPEN LABEL TREATMENT
20230000011010049,RS2023487A,0.7363,RS2023487A,2023000001,PC,PT144H,144,HOUR 144,2001-02-14T09:46,32,PLASMA,2001-02-08T09:46,OPEN LABEL TREATMENT
20230000011010049,RS2023,0.053900000000000003,RS2023,2023000001,PC,PT168H,168,HOUR 168,2001-02-15T09:46,33,PLASMA,2001-02-08T09:46,OPEN LABEL TREATMENT
20230000011010049,RS2023487A,0.2989,RS2023487A,2023000001,PC,PT168H,168,HOUR 168,2001-02-15T09:46,34,PLASMA,2001-02-08T09:46,OPEN LABEL TREATMENT
20230000011010050,RS2023,0,RS2023,2023000001,PC,PT0H,0,PREDOSE,2001-02-16T08:10,1,PLASMA,2001-02-16T08:10,OPEN LABEL TREATMENT
20230000011010050,RS2023487A,0,RS2023487A,2023000001,PC,PT0H,0,PREDOSE,2001-02-16T08:10,2,PLASMA,2001-02-16T08:10,OPEN LABEL TREATMENT
20230000011010050,RS2023,189.8501,RS2023,2023000001,PC,PT0.5H,0.5,HOUR 0.5,2001-02-16T08:40,3,PLASMA,2001-02-16T08:10,OPEN LABEL TREATMENT
20230000011010050,RS2023487A,58.7209,RS2023487A,2023000001,PC,PT0.5H,0.5,HOUR 0.5,2001-02-16T08:40,4,PLASMA,2001-02-16T08:10,OPEN LABEL TREATMENT
20230000011010050,RS2023,545.1942,RS2023,2023000001,PC,PT1H,1,HOUR 1,2001-02-16T09:10,5,PLASMA,2001-02-16T08:10,OPEN LABEL TREATMENT
20230000011010050,RS2023487A,380.4482,RS2023487A,2023000001,PC,PT1H,1,HOUR 1,2001-02-16T09:10,6,PLASMA,2001-02-16T08:10,OPEN LABEL TREATMENT
20230000011010050,RS2023,814.2512,RS2023,2023000001,PC,PT1.5H,1.5,HOUR 1.5,2001-02-16T09:40,7,PLASMA,2001-02-16T08:10,OPEN LABEL TREATMENT
20230000011010050,RS2023487A,1045.2864,RS2023487A,2023000001,PC,PT1.5H,1.5,HOUR 1.5,2001-02-16T09:40,8,PLASMA,2001-02-16T08:10,OPEN LABEL TREATMENT
20230000011010050,RS2023,1393.871,RS2023,2023000001,PC,PT2H,2,HOUR 2,2001-02-16T10:10,9,PLASMA,2001-02-16T08:10,OPEN LABEL TREATMENT
20230000011010050,RS2023487A,2027.588,RS2023487A,2023000001,PC,PT2H,2,HOUR 2,2001-02-16T10:10,10,PLASMA,2001-02-16T08:10,OPEN LABEL TREATMENT
20230000011010050,RS2023,1591.6237,RS2023,2023000001,PC,PT3H,3,HOUR 3,2001-02-16T11:10,11,PLASMA,2001-02-16T08:10,OPEN LABEL TREATMENT
20230000011010050,RS2023487A,4616.4236,RS2023487A,2023000001,PC,PT3H,3,HOUR 3,2001-02-16T11:10,12,PLASMA,2001-02-16T08:10,OPEN LABEL TREATMENT
20230000011010050,RS2023,1530.3214,RS2023,2023000001,PC,PT4H,4,HOUR 4,2001-02-16T12:10,13,PLASMA,2001-02-16T08:10,OPEN LABEL TREATMENT
20230000011010050,RS2023487A,6731.0007,RS2023487A,2023000001,PC,PT4H,4,HOUR 4,2001-02-16T12:10,14,PLASMA,2001-02-16T08:10,OPEN LABEL TREATMENT
20230000011010050,RS2023,646.6105,RS2023,2023000001,PC,PT6H,6,HOUR 6,2001-02-16T14:10,15,PLASMA,2001-02-16T08:10,OPEN LABEL TREATMENT
20230000011010050,RS2023487A,7312.4161,RS2023487A,2023000001,PC,PT6H,6,HOUR 6,2001-02-16T14:10,16,PLASMA,2001-02-16T08:10,OPEN LABEL TREATMENT
20230000011010050,RS2023,217.6152,RS2023,2023000001,PC,PT8H,8,HOUR 8,2001-02-16T16:10,17,PLASMA,2001-02-16T08:10,OPEN LABEL TREATMENT
20230000011010050,RS2023487A,5549.0396,RS2023487A,2023000001,PC,PT8H,8,HOUR 8,2001-02-16T16:10,18,PLASMA,2001-02-16T08:10,OPEN LABEL TREATMENT
20230000011010050,RS2023,83.5704,RS2023,2023000001,PC,PT10H,10,HOUR 10,2001-02-16T18:10,19,PLASMA,2001-02-16T08:10,OPEN LABEL TREATMENT
20230000011010050,RS2023487A,3669.5218,RS2023487A,2023000001,PC,PT10H,10,HOUR 10,2001-02-16T18:10,20,PLASMA,2001-02-16T08:10,OPEN LABEL TREATMENT
20230000011010050,RS2023,31.9143,RS2023,2023000001,PC,PT12H,12,HOUR 12,2001-02-16T20:10,21,PLASMA,2001-02-16T08:10,OPEN LABEL TREATMENT
20230000011010050,RS2023487A,2294.3985,RS2023487A,2023000001,PC,PT12H,12,HOUR 12,2001-02-16T20:10,22,PLASMA,2001-02-16T08:10,OPEN LABEL TREATMENT
20230000011010050,RS2023,8.7443,RS2023,2023000001,PC,PT24H,24,HOUR 24,2001-02-17T08:10,23,PLASMA,2001-02-16T08:10,OPEN LABEL TREATMENT
20230000011010050,RS2023487A,170.7392,RS2023487A,2023000001,PC,PT24H,24,HOUR 24,2001-02-17T08:10,24,PLASMA,2001-02-16T08:10,OPEN LABEL TREATMENT
20230000011010050,RS2023,3.6144,RS2023,2023000001,PC,PT48H,48,HOUR 48,2001-02-18T08:10,25,PLASMA,2001-02-16T08:10,OPEN LABEL TREATMENT
20230000011010050,RS2023487A,34.0928,RS2023487A,2023000001,PC,PT48H,48,HOUR 48,2001-02-18T08:10,26,PLASMA,2001-02-16T08:10,OPEN LABEL TREATMENT
20230000011010050,RS2023,1.2318,RS2023,2023000001,PC,PT72H,72,HOUR 72,2001-02-19T08:10,27,PLASMA,2001-02-16T08:10,OPEN LABEL TREATMENT
20230000011010050,RS2023487A,13.5382,RS2023487A,2023000001,PC,PT72H,72,HOUR 72,2001-02-19T08:10,28,PLASMA,2001-02-16T08:10,OPEN LABEL TREATMENT
20230000011010050,RS2023,0.5185,RS2023,2023000001,PC,PT96H,96,HOUR 96,2001-02-20T08:10,29,PLASMA,2001-02-16T08:10,OPEN LABEL TREATMENT
20230000011010050,RS2023487A,5.3951,RS2023487A,2023000001,PC,PT96H,96,HOUR 96,2001-02-20T08:10,30,PLASMA,2001-02-16T08:10,OPEN LABEL TREATMENT
20230000011010050,RS2023,0.0852,RS2023,2023000001,PC,PT144H,144,HOUR 144,2001-02-22T08:10,31,PLASMA,2001-02-16T08:10,OPEN LABEL TREATMENT
20230000011010050,RS2023487A,0.8568,RS2023487A,2023000001,PC,PT144H,144,HOUR 144,2001-02-22T08:10,32,PLASMA,2001-02-16T08:10,OPEN LABEL TREATMENT
20230000011010050,RS2023,0.0338,RS2023,2023000001,PC,PT168H,168,HOUR 168,2001-02-23T08:10,33,PLASMA,2001-02-16T08:10,OPEN LABEL TREATMENT
20230000011010050,RS2023487A,0.3415,RS2023487A,2023000001,PC,PT168H,168,HOUR 168,2001-02-23T08:10,34,PLASMA,2001-02-16T08:10,OPEN LABEL TREATMENT
20230000011010052,RS2023,0,RS2023,2023000001,PC,PT0H,0,PREDOSE,2001-02-15T07:16,1,PLASMA,2001-02-15T07:16,OPEN LABEL TREATMENT
20230000011010052,RS2023487A,0,RS2023487A,2023000001,PC,PT0H,0,PREDOSE,2001-02-15T07:16,2,PLASMA,2001-02-15T07:16,OPEN LABEL TREATMENT
20230000011010052,RS2023,316.6328,RS2023,2023000001,PC,PT0.5H,0.5,HOUR 0.5,2001-02-15T07:46,3,PLASMA,2001-02-15T07:16,OPEN LABEL TREATMENT
20230000011010052,RS2023487A,148.465,RS2023487A,2023000001,PC,PT0.5H,0.5,HOUR 0.5,2001-02-15T07:46,4,PLASMA,2001-02-15T07:16,OPEN LABEL TREATMENT
20230000011010052,RS2023,1091.9965,RS2023,2023000001,PC,PT1H,1,HOUR 1,2001-02-15T08:16,5,PLASMA,2001-02-15T07:16,OPEN LABEL TREATMENT
20230000011010052,RS2023487A,935.1434,RS2023487A,2023000001,PC,PT1H,1,HOUR 1,2001-02-15T08:16,6,PLASMA,2001-02-15T07:16,OPEN LABEL TREATMENT
20230000011010052,RS2023,1695.0996,RS2023,2023000001,PC,PT1.5H,1.5,HOUR 1.5,2001-02-15T08:46,7,PLASMA,2001-02-15T07:16,OPEN LABEL TREATMENT
20230000011010052,RS2023487A,2506.7872,RS2023487A,2023000001,PC,PT1.5H,1.5,HOUR 1.5,2001-02-15T08:46,8,PLASMA,2001-02-15T07:16,OPEN LABEL TREATMENT
20230000011010052,RS2023,1922.6679,RS2023,2023000001,PC,PT2H,2,HOUR 2,2001-02-15T09:16,9,PLASMA,2001-02-15T07:16,OPEN LABEL TREATMENT
20230000011010052,RS2023487A,4537.7329,RS2023487A,2023000001,PC,PT2H,2,HOUR 2,2001-02-15T09:16,10,PLASMA,2001-02-15T07:16,OPEN LABEL TREATMENT
20230000011010052,RS2023,1687.1497,RS2023,2023000001,PC,PT3H,3,HOUR 3,2001-02-15T10:16,11,PLASMA,2001-02-15T07:16,OPEN LABEL TREATMENT
20230000011010052,RS2023487A,7761.5096,RS2023487A,2023000001,PC,PT3H,3,HOUR 3,2001-02-15T10:16,12,PLASMA,2001-02-15T07:16,OPEN LABEL TREATMENT
20230000011010052,RS2023,854.3323,RS2023,2023000001,PC,PT4H,4,HOUR 4,2001-02-15T11:16,13,PLASMA,2001-02-15T07:16,OPEN LABEL TREATMENT
20230000011010052,RS2023487A,9101.2633,RS2023487A,2023000001,PC,PT4H,4,HOUR 4,2001-02-15T11:16,14,PLASMA,2001-02-15T07:16,OPEN LABEL TREATMENT
20230000011010052,RS2023,311.0667,RS2023,2023000001,PC,PT6H,6,HOUR 6,2001-02-15T13:16,15,PLASMA,2001-02-15T07:16,OPEN LABEL TREATMENT
20230000011010052,RS2023487A,8380.2211,RS2023487A,2023000001,PC,PT6H,6,HOUR 6,2001-02-15T13:16,16,PLASMA,2001-02-15T07:16,OPEN LABEL TREATMENT
20230000011010052,RS2023,97.0723,RS2023,2023000001,PC,PT8H,8,HOUR 8,2001-02-15T15:16,17,PLASMA,2001-02-15T07:16,OPEN LABEL TREATMENT
20230000011010052,RS2023487A,6418.4313,RS2023487A,2023000001,PC,PT8H,8,HOUR 8,2001-02-15T15:16,18,PLASMA,2001-02-15T07:16,OPEN LABEL TREATMENT
20230000011010052,RS2023,65.2454,RS2023,2023000001,PC,PT10H,10,HOUR 10,2001-02-15T17:16,19,PLASMA,2001-02-15T07:16,OPEN LABEL TREATMENT
20230000011010052,RS2023487A,4675.4642,RS2023487A,2023000001,PC,PT10H,10,HOUR 10,2001-02-15T17:16,20,PLASMA,2001-02-15T07:16,OPEN LABEL TREATMENT
20230000011010052,RS2023,44.8151,RS2023,2023000001,PC,PT12H,12,HOUR 12,2001-02-15T19:16,21,PLASMA,2001-02-15T07:16,OPEN LABEL TREATMENT
20230000011010052,RS2023487A,3373.4752,RS2023487A,2023000001,PC,PT12H,12,HOUR 12,2001-02-15T19:16,22,PLASMA,2001-02-15T07:16,OPEN LABEL TREATMENT
20230000011010052,RS2023,11.6574,RS2023,2023000001,PC,PT24H,24,HOUR 24,2001-02-16T07:16,23,PLASMA,2001-02-15T07:16,OPEN LABEL TREATMENT
20230000011010052,RS2023487A,570.1935,RS2023487A,2023000001,PC,PT24H,24,HOUR 24,2001-02-16T07:16,24,PLASMA,2001-02-15T07:16,OPEN LABEL TREATMENT
20230000011010052,RS2023,1.6397,RS2023,2023000001,PC,PT48H,48,HOUR 48,2001-02-17T07:16,25,PLASMA,2001-02-15T07:16,OPEN LABEL TREATMENT
20230000011010052,RS2023487A,48.2875,RS2023487A,2023000001,PC,PT48H,48,HOUR 48,2001-02-17T07:16,26,PLASMA,2001-02-15T07:16,OPEN LABEL TREATMENT
20230000011010052,RS2023,0.281,RS2023,2023000001,PC,PT72H,72,HOUR 72,2001-02-18T07:16,27,PLASMA,2001-02-15T07:16,OPEN LABEL TREATMENT
20230000011010052,RS2023487A,6.6686,RS2023487A,2023000001,PC,PT72H,72,HOUR 72,2001-02-18T07:16,28,PLASMA,2001-02-15T07:16,OPEN LABEL TREATMENT
20230000011010052,RS2023,0.0383,RS2023,2023000001,PC,PT96H,96,HOUR 96,2001-02-19T07:16,29,PLASMA,2001-02-15T07:16,OPEN LABEL TREATMENT
20230000011010052,RS2023487A,0.965,RS2023487A,2023000001,PC,PT96H,96,HOUR 96,2001-02-19T07:16,30,PLASMA,2001-02-15T07:16,OPEN LABEL TREATMENT
20230000011010052,RS2023,9e-4,RS2023,2023000001,PC,PT144H,144,HOUR 144,2001-02-21T07:16,31,PLASMA,2001-02-15T07:16,OPEN LABEL TREATMENT
20230000011010052,RS2023487A,0.0203,RS2023487A,2023000001,PC,PT144H,144,HOUR 144,2001-02-21T07:16,32,PLASMA,2001-02-15T07:16,OPEN LABEL TREATMENT
20230000011010052,RS2023,1e-4,RS2023,2023000001,PC,PT168H,168,HOUR 168,2001-02-22T07:16,33,PLASMA,2001-02-15T07:16,OPEN LABEL TREATMENT
20230000011010052,RS2023487A,0.003,RS2023487A,2023000001,PC,PT168H,168,HOUR 168,2001-02-22T07:16,34,PLASMA,2001-02-15T07:16,OPEN LABEL TREATMENT
20230000011010053,RS2023,0,RS2023,2023000001,PC,PT0H,0,PREDOSE,2001-02-19T09:16,1,PLASMA,2001-02-19T09:16,OPEN LABEL TREATMENT
20230000011010053,RS2023487A,0,RS2023487A,2023000001,PC,PT0H,0,PREDOSE,2001-02-19T09:16,2,PLASMA,2001-02-19T09:16,OPEN LABEL TREATMENT
20230000011010053,RS2023,256.3151,RS2023,2023000001,PC,PT0.5H,0.5,HOUR 0.5,2001-02-19T09:46,3,PLASMA,2001-02-19T09:16,OPEN LABEL TREATMENT
20230000011010053,RS2023487A,39.3198,RS2023487A,2023000001,PC,PT0.5H,0.5,HOUR 0.5,2001-02-19T09:46,4,PLASMA,2001-02-19T09:16,OPEN LABEL TREATMENT
20230000011010053,RS2023,883.4961,RS2023,2023000001,PC,PT1H,1,HOUR 1,2001-02-19T10:16,5,PLASMA,2001-02-19T09:16,OPEN LABEL TREATMENT
20230000011010053,RS2023487A,271.243,RS2023487A,2023000001,PC,PT1H,1,HOUR 1,2001-02-19T10:16,6,PLASMA,2001-02-19T09:16,OPEN LABEL TREATMENT
20230000011010053,RS2023,1672.6103,RS2023,2023000001,PC,PT1.5H,1.5,HOUR 1.5,2001-02-19T10:46,7,PLASMA,2001-02-19T09:16,OPEN LABEL TREATMENT
20230000011010053,RS2023487A,792.5604,RS2023487A,2023000001,PC,PT1.5H,1.5,HOUR 1.5,2001-02-19T10:46,8,PLASMA,2001-02-19T09:16,OPEN LABEL TREATMENT
20230000011010053,RS2023,2059.717,RS2023,2023000001,PC,PT2H,2,HOUR 2,2001-02-19T11:16,9,PLASMA,2001-02-19T09:16,OPEN LABEL TREATMENT
20230000011010053,RS2023487A,1624.3833,RS2023487A,2023000001,PC,PT2H,2,HOUR 2,2001-02-19T11:16,10,PLASMA,2001-02-19T09:16,OPEN LABEL TREATMENT
20230000011010053,RS2023,2423.611,RS2023,2023000001,PC,PT3H,3,HOUR 3,2001-02-19T12:16,11,PLASMA,2001-02-19T09:16,OPEN LABEL TREATMENT
20230000011010053,RS2023487A,3670.6385,RS2023487A,2023000001,PC,PT3H,3,HOUR 3,2001-02-19T12:16,12,PLASMA,2001-02-19T09:16,OPEN LABEL TREATMENT
20230000011010053,RS2023,2088.7702,RS2023,2023000001,PC,PT4H,4,HOUR 4,2001-02-19T13:16,13,PLASMA,2001-02-19T09:16,OPEN LABEL TREATMENT
20230000011010053,RS2023487A,5457.3078,RS2023487A,2023000001,PC,PT4H,4,HOUR 4,2001-02-19T13:16,14,PLASMA,2001-02-19T09:16,OPEN LABEL TREATMENT
20230000011010053,RS2023,1253.1188,RS2023,2023000001,PC,PT6H,6,HOUR 6,2001-02-19T15:16,15,PLASMA,2001-02-19T09:16,OPEN LABEL TREATMENT
20230000011010053,RS2023487A,7361.9174,RS2023487A,2023000001,PC,PT6H,6,HOUR 6,2001-02-19T15:16,16,PLASMA,2001-02-19T09:16,OPEN LABEL TREATMENT
20230000011010053,RS2023,968.6804,RS2023,2023000001,PC,PT8H,8,HOUR 8,2001-02-19T17:16,17,PLASMA,2001-02-19T09:16,OPEN LABEL TREATMENT
20230000011010053,RS2023487A,7523.3558,RS2023487A,2023000001,PC,PT8H,8,HOUR 8,2001-02-19T17:16,18,PLASMA,2001-02-19T09:16,OPEN LABEL TREATMENT
20230000011010053,RS2023,445.8633,RS2023,2023000001,PC,PT10H,10,HOUR 10,2001-02-19T19:16,19,PLASMA,2001-02-19T09:16,OPEN LABEL TREATMENT
20230000011010053,RS2023487A,6818.1684,RS2023487A,2023000001,PC,PT10H,10,HOUR 10,2001-02-19T19:16,20,PLASMA,2001-02-19T09:16,OPEN LABEL TREATMENT
20230000011010053,RS2023,306.6359,RS2023,2023000001,PC,PT12H,12,HOUR 12,2001-02-19T21:16,21,PLASMA,2001-02-19T09:16,OPEN LABEL TREATMENT
20230000011010053,RS2023487A,5817.8237,RS2023487A,2023000001,PC,PT12H,12,HOUR 12,2001-02-19T21:16,22,PLASMA,2001-02-19T09:16,OPEN LABEL TREATMENT
20230000011010053,RS2023,39.5353,RS2023,2023000001,PC,PT24H,24,HOUR 24,2001-02-20T09:16,23,PLASMA,2001-02-19T09:16,OPEN LABEL TREATMENT
20230000011010053,RS2023487A,1640.2438,RS2023487A,2023000001,PC,PT24H,24,HOUR 24,2001-02-20T09:16,24,PLASMA,2001-02-19T09:16,OPEN LABEL TREATMENT
20230000011010053,RS2023,19.2475,RS2023,2023000001,PC,PT48H,48,HOUR 48,2001-02-21T09:16,25,PLASMA,2001-02-19T09:16,OPEN LABEL TREATMENT
20230000011010053,RS2023487A,237.2971,RS2023487A,2023000001,PC,PT48H,48,HOUR 48,2001-02-21T09:16,26,PLASMA,2001-02-19T09:16,OPEN LABEL TREATMENT
20230000011010053,RS2023,10.1225,RS2023,2023000001,PC,PT72H,72,HOUR 72,2001-02-22T09:16,27,PLASMA,2001-02-19T09:16,OPEN LABEL TREATMENT
20230000011010053,RS2023487A,81.661,RS2023487A,2023000001,PC,PT72H,72,HOUR 72,2001-02-22T09:16,28,PLASMA,2001-02-19T09:16,OPEN LABEL TREATMENT
20230000011010053,RS2023,3.5671,RS2023,2023000001,PC,PT96H,96,HOUR 96,2001-02-23T09:16,29,PLASMA,2001-02-19T09:16,OPEN LABEL TREATMENT
20230000011010053,RS2023487A,33.455,RS2023487A,2023000001,PC,PT96H,96,HOUR 96,2001-02-23T09:16,30,PLASMA,2001-02-19T09:16,OPEN LABEL TREATMENT
20230000011010053,RS2023,0.5011,RS2023,2023000001,PC,PT144H,144,HOUR 144,2001-02-25T09:16,31,PLASMA,2001-02-19T09:16,OPEN LABEL TREATMENT
20230000011010053,RS2023487A,5.8314,RS2023487A,2023000001,PC,PT144H,144,HOUR 144,2001-02-25T09:16,32,PLASMA,2001-02-19T09:16,OPEN LABEL TREATMENT
20230000011010053,RS2023,0.2762,RS2023,2023000001,PC,PT168H,168,HOUR 168,2001-02-26T09:16,33,PLASMA,2001-02-19T09:16,OPEN LABEL TREATMENT
20230000011010053,RS2023487A,2.437,RS2023487A,2023000001,PC,PT168H,168,HOUR 168,2001-02-26T09:16,34,PLASMA,2001-02-19T09:16,OPEN LABEL TREATMENT
20230000011010054,RS2023,0,RS2023,2023000001,PC,PT0H,0,PREDOSE,2001-02-19T09:29,1,PLASMA,2001-02-19T09:29,OPEN LABEL TREATMENT
20230000011010054,RS2023487A,0,RS2023487A,2023000001,PC,PT0H,0,PREDOSE,2001-02-19T09:29,2,PLASMA,2001-02-19T09:29,OPEN LABEL TREATMENT
20230000011010054,RS2023,192.3821,RS2023,2023000001,PC,PT0.5H,0.5,HOUR 0.5,2001-02-19T09:59,3,PLASMA,2001-02-19T09:29,OPEN LABEL TREATMENT
20230000011010054,RS2023487A,56.9412,RS2023487A,2023000001,PC,PT0.5H,0.5,HOUR 0.5,2001-02-19T09:59,4,PLASMA,2001-02-19T09:29,OPEN LABEL TREATMENT
20230000011010054,RS2023,656.7031,RS2023,2023000001,PC,PT1H,1,HOUR 1,2001-02-19T10:29,5,PLASMA,2001-02-19T09:29,OPEN LABEL TREATMENT
20230000011010054,RS2023487A,356.8608,RS2023487A,2023000001,PC,PT1H,1,HOUR 1,2001-02-19T10:29,6,PLASMA,2001-02-19T09:29,OPEN LABEL TREATMENT
20230000011010054,RS2023,915.2171,RS2023,2023000001,PC,PT1.5H,1.5,HOUR 1.5,2001-02-19T10:59,7,PLASMA,2001-02-19T09:29,OPEN LABEL TREATMENT
20230000011010054,RS2023487A,950.4836,RS2023487A,2023000001,PC,PT1.5H,1.5,HOUR 1.5,2001-02-19T10:59,8,PLASMA,2001-02-19T09:29,OPEN LABEL TREATMENT
20230000011010054,RS2023,1316.507,RS2023,2023000001,PC,PT2H,2,HOUR 2,2001-02-19T11:29,9,PLASMA,2001-02-19T09:29,OPEN LABEL TREATMENT
20230000011010054,RS2023487A,1782.3233,RS2023487A,2023000001,PC,PT2H,2,HOUR 2,2001-02-19T11:29,10,PLASMA,2001-02-19T09:29,OPEN LABEL TREATMENT
20230000011010054,RS2023,1712.6687,RS2023,2023000001,PC,PT3H,3,HOUR 3,2001-02-19T12:29,11,PLASMA,2001-02-19T09:29,OPEN LABEL TREATMENT
20230000011010054,RS2023487A,3276.997,RS2023487A,2023000001,PC,PT3H,3,HOUR 3,2001-02-19T12:29,12,PLASMA,2001-02-19T09:29,OPEN LABEL TREATMENT
20230000011010054,RS2023,857.7739,RS2023,2023000001,PC,PT4H,4,HOUR 4,2001-02-19T13:29,13,PLASMA,2001-02-19T09:29,OPEN LABEL TREATMENT
20230000011010054,RS2023487A,3854.5812,RS2023487A,2023000001,PC,PT4H,4,HOUR 4,2001-02-19T13:29,14,PLASMA,2001-02-19T09:29,OPEN LABEL TREATMENT
20230000011010054,RS2023,251.8335,RS2023,2023000001,PC,PT6H,6,HOUR 6,2001-02-19T15:29,15,PLASMA,2001-02-19T09:29,OPEN LABEL TREATMENT
20230000011010054,RS2023487A,3225.9905,RS2023487A,2023000001,PC,PT6H,6,HOUR 6,2001-02-19T15:29,16,PLASMA,2001-02-19T09:29,OPEN LABEL TREATMENT
20230000011010054,RS2023,85.7257,RS2023,2023000001,PC,PT8H,8,HOUR 8,2001-02-19T17:29,17,PLASMA,2001-02-19T09:29,OPEN LABEL TREATMENT
20230000011010054,RS2023487A,2087.3342,RS2023487A,2023000001,PC,PT8H,8,HOUR 8,2001-02-19T17:29,18,PLASMA,2001-02-19T09:29,OPEN LABEL TREATMENT
20230000011010054,RS2023,26.4321,RS2023,2023000001,PC,PT10H,10,HOUR 10,2001-02-19T19:29,19,PLASMA,2001-02-19T09:29,OPEN LABEL TREATMENT
20230000011010054,RS2023487A,1236.2203,RS2023487A,2023000001,PC,PT10H,10,HOUR 10,2001-02-19T19:29,20,PLASMA,2001-02-19T09:29,OPEN LABEL TREATMENT
20230000011010054,RS2023,14.6766,RS2023,2023000001,PC,PT12H,12,HOUR 12,2001-02-19T21:29,21,PLASMA,2001-02-19T09:29,OPEN LABEL TREATMENT
20230000011010054,RS2023487A,714.181,RS2023487A,2023000001,PC,PT12H,12,HOUR 12,2001-02-19T21:29,22,PLASMA,2001-02-19T09:29,OPEN LABEL TREATMENT
20230000011010054,RS2023,5.2521,RS2023,2023000001,PC,PT24H,24,HOUR 24,2001-02-20T09:29,23,PLASMA,2001-02-19T09:29,OPEN LABEL TREATMENT
20230000011010054,RS2023487A,53.628,RS2023487A,2023000001,PC,PT24H,24,HOUR 24,2001-02-20T09:29,24,PLASMA,2001-02-19T09:29,OPEN LABEL TREATMENT
20230000011010054,RS2023,1.7848,RS2023,2023000001,PC,PT48H,48,HOUR 48,2001-02-21T09:29,25,PLASMA,2001-02-19T09:29,OPEN LABEL TREATMENT
20230000011010054,RS2023487A,10.5132,RS2023487A,2023000001,PC,PT48H,48,HOUR 48,2001-02-21T09:29,26,PLASMA,2001-02-19T09:29,OPEN LABEL TREATMENT
20230000011010054,RS2023,0.4184,RS2023,2023000001,PC,PT72H,72,HOUR 72,2001-02-22T09:29,27,PLASMA,2001-02-19T09:29,OPEN LABEL TREATMENT
20230000011010054,RS2023487A,2.9573,RS2023487A,2023000001,PC,PT72H,72,HOUR 72,2001-02-22T09:29,28,PLASMA,2001-02-19T09:29,OPEN LABEL TREATMENT
20230000011010054,RS2023,0.1198,RS2023,2023000001,PC,PT96H,96,HOUR 96,2001-02-23T09:29,29,PLASMA,2001-02-19T09:29,OPEN LABEL TREATMENT
20230000011010054,RS2023487A,0.8327,RS2023487A,2023000001,PC,PT96H,96,HOUR 96,2001-02-23T09:29,30,PLASMA,2001-02-19T09:29,OPEN LABEL TREATMENT
20230000011010054,RS2023,0.0095,RS2023,2023000001,PC,PT144H,144,HOUR 144,2001-02-25T09:29,31,PLASMA,2001-02-19T09:29,OPEN LABEL TREATMENT
20230000011010054,RS2023487A,0.066,RS2023487A,2023000001,PC,PT144H,144,HOUR 144,2001-02-25T09:29,32,PLASMA,2001-02-19T09:29,OPEN LABEL TREATMENT
20230000011010054,RS2023,0.0021,RS2023,2023000001,PC,PT168H,168,HOUR 168,2001-02-26T09:29,33,PLASMA,2001-02-19T09:29,OPEN LABEL TREATMENT
20230000011010054,RS2023487A,0.0186,RS2023487A,2023000001,PC,PT168H,168,HOUR 168,2001-02-26T09:29,34,PLASMA,2001-02-19T09:29,OPEN LABEL TREATMENT
20230000011010055,RS2023,0,RS2023,2023000001,PC,PT0H,0,PREDOSE,2001-02-15T09:10,1,PLASMA,2001-02-15T09:10,OPEN LABEL TREATMENT
20230000011010055,RS2023487A,0,RS2023487A,2023000001,PC,PT0H,0,PREDOSE,2001-02-15T09:10,2,PLASMA,2001-02-15T09:10,OPEN LABEL TREATMENT
20230000011010055,RS2023,205.1586,RS2023,2023000001,PC,PT0.5H,0.5,HOUR 0.5,2001-02-15T09:40,3,PLASMA,2001-02-15T09:10,OPEN LABEL TREATMENT
20230000011010055,RS2023487A,65.2765,RS2023487A,2023000001,PC,PT0.5H,0.5,HOUR 0.5,2001-02-15T09:40,4,PLASMA,2001-02-15T09:10,OPEN LABEL TREATMENT
20230000011010055,RS2023,754.7018,RS2023,2023000001,PC,PT1H,1,HOUR 1,2001-02-15T10:10,5,PLASMA,2001-02-15T09:10,OPEN LABEL TREATMENT
20230000011010055,RS2023487A,424.5276,RS2023487A,2023000001,PC,PT1H,1,HOUR 1,2001-02-15T10:10,6,PLASMA,2001-02-15T09:10,OPEN LABEL TREATMENT
20230000011010055,RS2023,1168.9889,RS2023,2023000001,PC,PT1.5H,1.5,HOUR 1.5,2001-02-15T10:40,7,PLASMA,2001-02-15T09:10,OPEN LABEL TREATMENT
20230000011010055,RS2023487A,1170.0747,RS2023487A,2023000001,PC,PT1.5H,1.5,HOUR 1.5,2001-02-15T10:40,8,PLASMA,2001-02-15T09:10,OPEN LABEL TREATMENT
20230000011010055,RS2023,1765.9538,RS2023,2023000001,PC,PT2H,2,HOUR 2,2001-02-15T11:10,9,PLASMA,2001-02-15T09:10,OPEN LABEL TREATMENT
20230000011010055,RS2023487A,2275.3077,RS2023487A,2023000001,PC,PT2H,2,HOUR 2,2001-02-15T11:10,10,PLASMA,2001-02-15T09:10,OPEN LABEL TREATMENT
20230000011010055,RS2023,2152.3986,RS2023,2023000001,PC,PT3H,3,HOUR 3,2001-02-15T12:10,11,PLASMA,2001-02-15T09:10,OPEN LABEL TREATMENT
20230000011010055,RS2023487A,4907.6567,RS2023487A,2023000001,PC,PT3H,3,HOUR 3,2001-02-15T12:10,12,PLASMA,2001-02-15T09:10,OPEN LABEL TREATMENT
20230000011010055,RS2023,1971.7151,RS2023,2023000001,PC,PT4H,4,HOUR 4,2001-02-15T13:10,13,PLASMA,2001-02-15T09:10,OPEN LABEL TREATMENT
20230000011010055,RS2023487A,6576.0704,RS2023487A,2023000001,PC,PT4H,4,HOUR 4,2001-02-15T13:10,14,PLASMA,2001-02-15T09:10,OPEN LABEL TREATMENT
20230000011010055,RS2023,1072.7846,RS2023,2023000001,PC,PT6H,6,HOUR 6,2001-02-15T15:10,15,PLASMA,2001-02-15T09:10,OPEN LABEL TREATMENT
20230000011010055,RS2023487A,6512.4671,RS2023487A,2023000001,PC,PT6H,6,HOUR 6,2001-02-15T15:10,16,PLASMA,2001-02-15T09:10,OPEN LABEL TREATMENT
20230000011010055,RS2023,456.9902,RS2023,2023000001,PC,PT8H,8,HOUR 8,2001-02-15T17:10,17,PLASMA,2001-02-15T09:10,OPEN LABEL TREATMENT
20230000011010055,RS2023487A,4609.5363,RS2023487A,2023000001,PC,PT8H,8,HOUR 8,2001-02-15T17:10,18,PLASMA,2001-02-15T09:10,OPEN LABEL TREATMENT
20230000011010055,RS2023,216.0358,RS2023,2023000001,PC,PT10H,10,HOUR 10,2001-02-15T19:10,19,PLASMA,2001-02-15T09:10,OPEN LABEL TREATMENT
20230000011010055,RS2023487A,2818.3699,RS2023487A,2023000001,PC,PT10H,10,HOUR 10,2001-02-15T19:10,20,PLASMA,2001-02-15T09:10,OPEN LABEL TREATMENT
20230000011010055,RS2023,127.3141,RS2023,2023000001,PC,PT12H,12,HOUR 12,2001-02-15T21:10,21,PLASMA,2001-02-15T09:10,OPEN LABEL TREATMENT
20230000011010055,RS2023487A,1608.9209,RS2023487A,2023000001,PC,PT12H,12,HOUR 12,2001-02-15T21:10,22,PLASMA,2001-02-15T09:10,OPEN LABEL TREATMENT
20230000011010055,RS2023,19.4027,RS2023,2023000001,PC,PT24H,24,HOUR 24,2001-02-16T09:10,23,PLASMA,2001-02-15T09:10,OPEN LABEL TREATMENT
20230000011010055,RS2023487A,119.3193,RS2023487A,2023000001,PC,PT24H,24,HOUR 24,2001-02-16T09:10,24,PLASMA,2001-02-15T09:10,OPEN LABEL TREATMENT
20230000011010055,RS2023,9.238,RS2023,2023000001,PC,PT48H,48,HOUR 48,2001-02-17T09:10,25,PLASMA,2001-02-15T09:10,OPEN LABEL TREATMENT
20230000011010055,RS2023487A,43.7841,RS2023487A,2023000001,PC,PT48H,48,HOUR 48,2001-02-17T09:10,26,PLASMA,2001-02-15T09:10,OPEN LABEL TREATMENT
20230000011010055,RS2023,3.1325,RS2023,2023000001,PC,PT72H,72,HOUR 72,2001-02-18T09:10,27,PLASMA,2001-02-15T09:10,OPEN LABEL TREATMENT
20230000011010055,RS2023487A,19.2277,RS2023487A,2023000001,PC,PT72H,72,HOUR 72,2001-02-18T09:10,28,PLASMA,2001-02-15T09:10,OPEN LABEL TREATMENT
20230000011010055,RS2023,1.5963,RS2023,2023000001,PC,PT96H,96,HOUR 96,2001-02-19T09:10,29,PLASMA,2001-02-15T09:10,OPEN LABEL TREATMENT
20230000011010055,RS2023487A,8.4441,RS2023487A,2023000001,PC,PT96H,96,HOUR 96,2001-02-19T09:10,30,PLASMA,2001-02-15T09:10,OPEN LABEL TREATMENT
20230000011010055,RS2023,0.3587,RS2023,2023000001,PC,PT144H,144,HOUR 144,2001-02-21T09:10,31,PLASMA,2001-02-15T09:10,OPEN LABEL TREATMENT
20230000011010055,RS2023487A,1.6286,RS2023487A,2023000001,PC,PT144H,144,HOUR 144,2001-02-21T09:10,32,PLASMA,2001-02-15T09:10,OPEN LABEL TREATMENT
20230000011010055,RS2023,0.1508,RS2023,2023000001,PC,PT168H,168,HOUR 168,2001-02-22T09:10,33,PLASMA,2001-02-15T09:10,OPEN LABEL TREATMENT
20230000011010055,RS2023487A,0.7152,RS2023487A,2023000001,PC,PT168H,168,HOUR 168,2001-02-22T09:10,34,PLASMA,2001-02-15T09:10,OPEN LABEL TREATMENT
20230000011010058,RS2023,0,RS2023,2023000001,PC,PT0H,0,PREDOSE,2001-02-20T10:41,1,PLASMA,2001-02-20T10:41,OPEN LABEL TREATMENT
20230000011010058,RS2023487A,0,RS2023487A,2023000001,PC,PT0H,0,PREDOSE,2001-02-20T10:41,2,PLASMA,2001-02-20T10:41,OPEN LABEL TREATMENT
20230000011010058,RS2023,288.8569,RS2023,2023000001,PC,PT0.5H,0.5,HOUR 0.5,2001-02-20T11:11,3,PLASMA,2001-02-20T10:41,OPEN LABEL TREATMENT
20230000011010058,RS2023487A,107.5886,RS2023487A,2023000001,PC,PT0.5H,0.5,HOUR 0.5,2001-02-20T11:11,4,PLASMA,2001-02-20T10:41,OPEN LABEL TREATMENT
20230000011010058,RS2023,733.6746,RS2023,2023000001,PC,PT1H,1,HOUR 1,2001-02-20T11:41,5,PLASMA,2001-02-20T10:41,OPEN LABEL TREATMENT
20230000011010058,RS2023487A,711.0599,RS2023487A,2023000001,PC,PT1H,1,HOUR 1,2001-02-20T11:41,6,PLASMA,2001-02-20T10:41,OPEN LABEL TREATMENT
20230000011010058,RS2023,1563.2457,RS2023,2023000001,PC,PT1.5H,1.5,HOUR 1.5,2001-02-20T12:11,7,PLASMA,2001-02-20T10:41,OPEN LABEL TREATMENT
20230000011010058,RS2023487A,1992.1314,RS2023487A,2023000001,PC,PT1.5H,1.5,HOUR 1.5,2001-02-20T12:11,8,PLASMA,2001-02-20T10:41,OPEN LABEL TREATMENT
20230000011010058,RS2023,1689.8357,RS2023,2023000001,PC,PT2H,2,HOUR 2,2001-02-20T12:41,9,PLASMA,2001-02-20T10:41,OPEN LABEL TREATMENT
