STUDYID,USUBJID,VSTESTCD,VSORRES,VSTEST,VSORRESU,VSSTRESN,VSSTRESU,EPOCH,DOMAIN,VSBLFL,VISIT,VSDTC
2023000001,20230000011010001,HEIGHT,187.36075356889984,Height,cm,187.4,cm,SCREENING,VS,Y,SCREENING,2000-12-31T10:18
2023000001,20230000011010001,WEIGHT,76.9745536345072,Weight,kg,77,kg,SCREENING,VS,Y,SCREENING,2000-12-31T10:18
2023000001,20230000011010002,HEIGHT,189.55538684492058,Height,cm,189.6,cm,SCREENING,VS,Y,SCREENING,2000-12-29T10:30
2023000001,20230000011010002,WEIGHT,72.7715521391106,Weight,kg,72.8,kg,SCREENING,VS,Y,SCREENING,2000-12-29T10:30
2023000001,20230000011010003,HEIGHT,174.59313152319362,Height,cm,174.6,cm,SCREENING,VS,Y,SCREENING,2000-12-29T09:22
2023000001,20230000011010003,WEIGHT,79.95994802231435,Weight,kg,80,kg,SCREENING,VS,Y,SCREENING,2000-12-29T09:22
2023000001,20230000011010004,HEIGHT,179.16472469281905,Height,cm,179.2,cm,SCREENING,VS,Y,SCREENING,NA
2023000001,20230000011010004,WEIGHT,73.35459444927514,Weight,kg,73.4,kg,SCREENING,VS,Y,SCREENING,NA
2023000001,20230000011010005,HEIGHT,168.2306877243744,Height,cm,168.2,cm,SCREENING,VS,Y,SCREENING,2001-01-02T09:22
2023000001,20230000011010005,WEIGHT,78.80667749680526,Weight,kg,78.8,kg,SCREENING,VS,Y,SCREENING,2001-01-02T09:22
2023000001,20230000011010006,HEIGHT,174.1201126793285,Height,cm,174.1,cm,SCREENING,VS,Y,SCREENING,2001-01-03T12:24
2023000001,20230000011010006,WEIGHT,89.54263174585641,Weight,kg,89.5,kg,SCREENING,VS,Y,SCREENING,2001-01-03T12:24
2023000001,20230000011010007,HEIGHT,172.5122120518634,Height,cm,172.5,cm,SCREENING,VS,Y,SCREENING,2001-01-02T10:00
2023000001,20230000011010007,WEIGHT,89.9901238358934,Weight,kg,90,kg,SCREENING,VS,Y,SCREENING,2001-01-02T10:00
2023000001,20230000011010008,HEIGHT,174.5800170516482,Height,cm,174.6,cm,SCREENING,VS,Y,SCREENING,2001-01-01T10:34
2023000001,20230000011010008,WEIGHT,81.4831947997486,Weight,kg,81.5,kg,SCREENING,VS,Y,SCREENING,2001-01-01T10:34
2023000001,20230000011010009,HEIGHT,185.12016555318263,Height,cm,185.1,cm,SCREENING,VS,Y,SCREENING,NA
2023000001,20230000011010009,WEIGHT,73.20882796072289,Weight,kg,73.2,kg,SCREENING,VS,Y,SCREENING,NA
2023000001,20230000011010010,HEIGHT,182.7757265414703,Height,cm,182.8,cm,SCREENING,VS,Y,SCREENING,2001-01-03T09:29
2023000001,20230000011010010,WEIGHT,77.60266855392307,Weight,kg,77.6,kg,SCREENING,VS,Y,SCREENING,2001-01-03T09:29
2023000001,20230000011010011,HEIGHT,171.2691999507348,Height,cm,171.3,cm,SCREENING,VS,Y,SCREENING,NA
2023000001,20230000011010011,WEIGHT,75.745187967801,Weight,kg,75.7,kg,SCREENING,VS,Y,SCREENING,NA
2023000001,20230000011010012,HEIGHT,190.0307690660129,Height,cm,190,cm,SCREENING,VS,Y,SCREENING,2001-01-07T11:26
2023000001,20230000011010012,WEIGHT,76.31586202829428,Weight,kg,76.3,kg,SCREENING,VS,Y,SCREENING,2001-01-07T11:26
2023000001,20230000011010013,HEIGHT,173.43090142748105,Height,cm,173.4,cm,SCREENING,VS,Y,SCREENING,2001-01-13T09:30
2023000001,20230000011010013,WEIGHT,77.94896617436761,Weight,kg,77.9,kg,SCREENING,VS,Y,SCREENING,2001-01-13T09:30
2023000001,20230000011010014,HEIGHT,181.24826436313208,Height,cm,181.2,cm,SCREENING,VS,Y,SCREENING,NA
2023000001,20230000011010014,WEIGHT,88.24431106950547,Weight,kg,88.2,kg,SCREENING,VS,Y,SCREENING,NA
2023000001,20230000011010015,HEIGHT,186.79036676776653,Height,cm,186.8,cm,SCREENING,VS,Y,SCREENING,NA
2023000001,20230000011010015,WEIGHT,79.52532846342564,Weight,kg,79.5,kg,SCREENING,VS,Y,SCREENING,NA
2023000001,20230000011010016,HEIGHT,186.93075742292677,Height,cm,186.9,cm,SCREENING,VS,Y,SCREENING,NA
2023000001,20230000011010016,WEIGHT,70.7045485324487,Weight,kg,70.7,kg,SCREENING,VS,Y,SCREENING,NA
2023000001,20230000011010017,HEIGHT,163.03386371405904,Height,cm,163,cm,SCREENING,VS,Y,SCREENING,NA
2023000001,20230000011010017,WEIGHT,73.68882905959873,Weight,kg,73.7,kg,SCREENING,VS,Y,SCREENING,NA
2023000001,20230000011010018,HEIGHT,175.48702411645468,Height,cm,175.5,cm,SCREENING,VS,Y,SCREENING,2001-01-18T12:32
2023000001,20230000011010018,WEIGHT,54.87643125467388,Weight,kg,54.9,kg,SCREENING,VS,Y,SCREENING,2001-01-18T12:32
2023000001,20230000011010019,HEIGHT,182.83043266496253,Height,cm,182.8,cm,SCREENING,VS,Y,SCREENING,2001-01-19T09:31
2023000001,20230000011010019,WEIGHT,70.50549357789171,Weight,kg,70.5,kg,SCREENING,VS,Y,SCREENING,2001-01-19T09:31
2023000001,20230000011010020,HEIGHT,177.4605723537862,Height,cm,177.5,cm,SCREENING,VS,Y,SCREENING,2001-01-19T11:19
2023000001,20230000011010020,WEIGHT,62.311549525928775,Weight,kg,62.3,kg,SCREENING,VS,Y,SCREENING,2001-01-19T11:19
2023000001,20230000011010021,HEIGHT,182.72863981472324,Height,cm,182.7,cm,SCREENING,VS,Y,SCREENING,2001-01-19T09:57
2023000001,20230000011010021,WEIGHT,97.7905155770259,Weight,kg,97.8,kg,SCREENING,VS,Y,SCREENING,2001-01-19T09:57
2023000001,20230000011010022,HEIGHT,173.02029487937426,Height,cm,173,cm,SCREENING,VS,Y,SCREENING,2001-01-16T09:50
2023000001,20230000011010022,WEIGHT,77.35189910734317,Weight,kg,77.4,kg,SCREENING,VS,Y,SCREENING,2001-01-16T09:50
2023000001,20230000011010023,HEIGHT,192.2707359724865,Height,cm,192.3,cm,SCREENING,VS,Y,SCREENING,2001-01-19T13:01
2023000001,20230000011010023,WEIGHT,88.02492658851881,Weight,kg,88,kg,SCREENING,VS,Y,SCREENING,2001-01-19T13:01
2023000001,20230000011010024,HEIGHT,192.0279346617569,Height,cm,192,cm,SCREENING,VS,Y,SCREENING,NA
2023000001,20230000011010024,WEIGHT,78.44661260909422,Weight,kg,78.4,kg,SCREENING,VS,Y,SCREENING,NA
2023000001,20230000011010025,HEIGHT,177.96310906684366,Height,cm,178,cm,SCREENING,VS,Y,SCREENING,2001-01-20T10:12
2023000001,20230000011010025,WEIGHT,73.301757096773,Weight,kg,73.3,kg,SCREENING,VS,Y,SCREENING,2001-01-20T10:12
2023000001,20230000011010026,HEIGHT,188.76944692033186,Height,cm,188.8,cm,SCREENING,VS,Y,SCREENING,2001-01-21T08:48
2023000001,20230000011010026,WEIGHT,65.38444697020353,Weight,kg,65.4,kg,SCREENING,VS,Y,SCREENING,2001-01-21T08:48
2023000001,20230000011010027,HEIGHT,181.09280980588667,Height,cm,181.1,cm,SCREENING,VS,Y,SCREENING,2001-01-23T07:59
2023000001,20230000011010027,WEIGHT,78.0275509605707,Weight,kg,78,kg,SCREENING,VS,Y,SCREENING,2001-01-23T07:59
2023000001,20230000011010028,HEIGHT,194.33504265886404,Height,cm,194.3,cm,SCREENING,VS,Y,SCREENING,2001-01-25T08:51
2023000001,20230000011010028,WEIGHT,72.29805596818098,Weight,kg,72.3,kg,SCREENING,VS,Y,SCREENING,2001-01-25T08:51
2023000001,20230000011010029,HEIGHT,168.72174756331444,Height,cm,168.7,cm,SCREENING,VS,Y,SCREENING,2001-01-26T10:21
2023000001,20230000011010029,WEIGHT,80.87284404898747,Weight,kg,80.9,kg,SCREENING,VS,Y,SCREENING,2001-01-26T10:21
2023000001,20230000011010030,HEIGHT,178.72999237989205,Height,cm,178.7,cm,SCREENING,VS,Y,SCREENING,2001-01-25T09:29
2023000001,20230000011010030,WEIGHT,69.94092431144547,Weight,kg,69.9,kg,SCREENING,VS,Y,SCREENING,2001-01-25T09:29
2023000001,20230000011010031,HEIGHT,179.9009023109427,Height,cm,179.9,cm,SCREENING,VS,Y,SCREENING,NA
2023000001,20230000011010031,WEIGHT,75.68964758359942,Weight,kg,75.7,kg,SCREENING,VS,Y,SCREENING,NA
2023000001,20230000011010032,HEIGHT,174.3776536529647,Height,cm,174.4,cm,SCREENING,VS,Y,SCREENING,2001-01-26T09:48
2023000001,20230000011010032,WEIGHT,83.60852650411341,Weight,kg,83.6,kg,SCREENING,VS,Y,SCREENING,2001-01-26T09:48
2023000001,20230000011010033,HEIGHT,176.74137965523377,Height,cm,176.7,cm,SCREENING,VS,Y,SCREENING,2001-01-28T09:34
2023000001,20230000011010033,WEIGHT,59.78320144212023,Weight,kg,59.8,kg,SCREENING,VS,Y,SCREENING,2001-01-28T09:34
2023000001,20230000011010034,HEIGHT,160.94164209858204,Height,cm,160.9,cm,SCREENING,VS,Y,SCREENING,2001-01-30T10:10
2023000001,20230000011010034,WEIGHT,72.57806184473897,Weight,kg,72.6,kg,SCREENING,VS,Y,SCREENING,2001-01-30T10:10
2023000001,20230000011010035,HEIGHT,188.9030125906328,Height,cm,188.9,cm,SCREENING,VS,Y,SCREENING,2001-01-29T09:18
2023000001,20230000011010035,WEIGHT,87.04891967563987,Weight,kg,87,kg,SCREENING,VS,Y,SCREENING,2001-01-29T09:18
2023000001,20230000011010036,HEIGHT,187.2745148828382,Height,cm,187.3,cm,SCREENING,VS,Y,SCREENING,2001-01-29T11:49
2023000001,20230000011010036,WEIGHT,88.52155551587451,Weight,kg,88.5,kg,SCREENING,VS,Y,SCREENING,2001-01-29T11:49
2023000001,20230000011010037,HEIGHT,181.1503530035655,Height,cm,181.2,cm,SCREENING,VS,Y,SCREENING,NA
2023000001,20230000011010037,WEIGHT,63.12796119729353,Weight,kg,63.1,kg,SCREENING,VS,Y,SCREENING,NA
2023000001,20230000011010038,HEIGHT,180.39993025060235,Height,cm,180.4,cm,SCREENING,VS,Y,SCREENING,NA
2023000001,20230000011010038,WEIGHT,94.79172652150686,Weight,kg,94.8,kg,SCREENING,VS,Y,SCREENING,NA
2023000001,20230000011010039,HEIGHT,155.87280732954858,Height,cm,155.9,cm,SCREENING,VS,Y,SCREENING,NA
2023000001,20230000011010039,WEIGHT,70.53020670011877,Weight,kg,70.5,kg,SCREENING,VS,Y,SCREENING,NA
2023000001,20230000011010040,HEIGHT,186.5077842035205,Height,cm,186.5,cm,SCREENING,VS,Y,SCREENING,2001-01-30T10:55
2023000001,20230000011010040,WEIGHT,83.89319919834199,Weight,kg,83.9,kg,SCREENING,VS,Y,SCREENING,2001-01-30T10:55
2023000001,20230000011010041,HEIGHT,184.37577588793616,Height,cm,184.4,cm,SCREENING,VS,Y,SCREENING,2001-01-30T10:47
2023000001,20230000011010041,WEIGHT,83.16241495973203,Weight,kg,83.2,kg,SCREENING,VS,Y,SCREENING,2001-01-30T10:47
2023000001,20230000011010042,HEIGHT,182.6694535176318,Height,cm,182.7,cm,SCREENING,VS,Y,SCREENING,2001-02-04T10:23
2023000001,20230000011010042,WEIGHT,78.64935984859324,Weight,kg,78.6,kg,SCREENING,VS,Y,SCREENING,2001-02-04T10:23
2023000001,20230000011010043,HEIGHT,172.75870898586194,Height,cm,172.8,cm,SCREENING,VS,Y,SCREENING,2001-02-01T08:48
2023000001,20230000011010043,WEIGHT,65.98648607416992,Weight,kg,66,kg,SCREENING,VS,Y,SCREENING,2001-02-01T08:48
2023000001,20230000011010044,HEIGHT,179.24620103196682,Height,cm,179.2,cm,SCREENING,VS,Y,SCREENING,2001-02-04T11:38
2023000001,20230000011010044,WEIGHT,74.20179024157183,Weight,kg,74.2,kg,SCREENING,VS,Y,SCREENING,2001-02-04T11:38
2023000001,20230000011010045,HEIGHT,172.8753283783676,Height,cm,172.9,cm,SCREENING,VS,Y,SCREENING,2001-02-05T10:28
2023000001,20230000011010045,WEIGHT,82.75790143836294,Weight,kg,82.8,kg,SCREENING,VS,Y,SCREENING,2001-02-05T10:28
2023000001,20230000011010046,HEIGHT,180.0449586580439,Height,cm,180,cm,SCREENING,VS,Y,SCREENING,2001-02-05T09:36
2023000001,20230000011010046,WEIGHT,93.42548706097111,Weight,kg,93.4,kg,SCREENING,VS,Y,SCREENING,2001-02-05T09:36
2023000001,20230000011010047,HEIGHT,171.36256799321305,Height,cm,171.4,cm,SCREENING,VS,Y,SCREENING,2001-02-05T09:39
2023000001,20230000011010047,WEIGHT,73.21856155283875,Weight,kg,73.2,kg,SCREENING,VS,Y,SCREENING,2001-02-05T09:39
2023000001,20230000011010048,HEIGHT,178.48961032841464,Height,cm,178.5,cm,SCREENING,VS,Y,SCREENING,2001-02-09T11:40
2023000001,20230000011010048,WEIGHT,64.14054116932138,Weight,kg,64.1,kg,SCREENING,VS,Y,SCREENING,2001-02-09T11:40
2023000001,20230000011010049,HEIGHT,177.06115303816765,Height,cm,177.1,cm,SCREENING,VS,Y,SCREENING,2001-02-08T09:46
2023000001,20230000011010049,WEIGHT,71.27665398222356,Weight,kg,71.3,kg,SCREENING,VS,Y,SCREENING,2001-02-08T09:46
2023000001,20230000011010050,HEIGHT,164.37457840225352,Height,cm,164.4,cm,SCREENING,VS,Y,SCREENING,2001-02-16T08:10
2023000001,20230000011010050,WEIGHT,75.60486096176415,Weight,kg,75.6,kg,SCREENING,VS,Y,SCREENING,2001-02-16T08:10
2023000001,20230000011010051,HEIGHT,175.36296856332285,Height,cm,175.4,cm,SCREENING,VS,Y,SCREENING,NA
2023000001,20230000011010051,WEIGHT,90.05670398037279,Weight,kg,90.1,kg,SCREENING,VS,Y,SCREENING,NA
2023000001,20230000011010052,HEIGHT,174.88629063540748,Height,cm,174.9,cm,SCREENING,VS,Y,SCREENING,2001-02-15T07:16
2023000001,20230000011010052,WEIGHT,84.18661827504322,Weight,kg,84.2,kg,SCREENING,VS,Y,SCREENING,2001-02-15T07:16
2023000001,20230000011010053,HEIGHT,179.97130548706713,Height,cm,180,cm,SCREENING,VS,Y,SCREENING,2001-02-19T09:16
2023000001,20230000011010053,WEIGHT,65.88402580857769,Weight,kg,65.9,kg,SCREENING,VS,Y,SCREENING,2001-02-19T09:16
2023000001,20230000011010054,HEIGHT,181.54792045274672,Height,cm,181.5,cm,SCREENING,VS,Y,SCREENING,2001-02-19T09:29
2023000001,20230000011010054,WEIGHT,77.41792154064217,Weight,kg,77.4,kg,SCREENING,VS,Y,SCREENING,2001-02-19T09:29
2023000001,20230000011010055,HEIGHT,180.13088212812661,Height,cm,180.1,cm,SCREENING,VS,Y,SCREENING,2001-02-15T09:10
2023000001,20230000011010055,WEIGHT,85.21195545309254,Weight,kg,85.2,kg,SCREENING,VS,Y,SCREENING,2001-02-15T09:10
2023000001,20230000011010056,HEIGHT,179.77608748500515,Height,cm,179.8,cm,SCREENING,VS,Y,SCREENING,NA
2023000001,20230000011010056,WEIGHT,94.66862347311815,Weight,kg,94.7,kg,SCREENING,VS,Y,SCREENING,NA
2023000001,20230000011010057,HEIGHT,179.78691892941904,Height,cm,179.8,cm,SCREENING,VS,Y,SCREENING,NA
2023000001,20230000011010057,WEIGHT,65.70920979930814,Weight,kg,65.7,kg,SCREENING,VS,Y,SCREENING,NA
2023000001,20230000011010058,HEIGHT,184.05209914703804,Height,cm,184.1,cm,SCREENING,VS,Y,SCREENING,2001-02-20T10:41
2023000001,20230000011010058,WEIGHT,66.02640352700155,Weight,kg,66,kg,SCREENING,VS,Y,SCREENING,2001-02-20T10:41
2023000001,20230000011010059,HEIGHT,165.9323309627,Height,cm,165.9,cm,SCREENING,VS,Y,SCREENING,2001-02-22T09:47
2023000001,20230000011010059,WEIGHT,70.2386488228079,Weight,kg,70.2,kg,SCREENING,VS,Y,SCREENING,2001-02-22T09:47
2023000001,20230000011010060,HEIGHT,173.92874807197225,Height,cm,173.9,cm,SCREENING,VS,Y,SCREENING,2001-02-19T10:01
2023000001,20230000011010060,WEIGHT,72.30343958852937,Weight,kg,72.3,kg,SCREENING,VS,Y,SCREENING,2001-02-19T10:01
2023000001,20230000011010061,HEIGHT,189.9420326449022,Height,cm,189.9,cm,SCREENING,VS,Y,SCREENING,2001-02-21T08:44
2023000001,20230000011010061,WEIGHT,95.183114352093,Weight,kg,95.2,kg,SCREENING,VS,Y,SCREENING,2001-02-21T08:44
2023000001,20230000011010062,HEIGHT,183.94468036851674,Height,cm,183.9,cm,SCREENING,VS,Y,SCREENING,2001-02-22T10:25
2023000001,20230000011010062,WEIGHT,65.50688376455673,Weight,kg,65.5,kg,SCREENING,VS,Y,SCREENING,2001-02-22T10:25
2023000001,20230000011010063,HEIGHT,179.15762804250105,Height,cm,179.2,cm,SCREENING,VS,Y,SCREENING,2001-02-23T11:31
2023000001,20230000011010063,WEIGHT,83.46863658503008,Weight,kg,83.5,kg,SCREENING,VS,Y,SCREENING,2001-02-23T11:31
